subject_name	subject_number	subject_sex	subject_age	session	block	trial	RSI_time	frame_rate	frame_time	frame_sd	time	date	trial_type	RT	error	stimulus	response	quit_log	userquituserquituserquituserquituserquituserquituserquit
john-doe	01	male	18	1	1	1	0,0	None	7,821724789920621	3,78835253020997	17:48:06.038995	16/01/2023	training	0,36429287499959173	0	1	1	
john-doe	01	male	18	1	1	2	0,12657025000044086	None	7,821724789920621	3,78835253020997	17:48:06.466013	16/01/2023	training	0,2961596249988361	0	4	4	
john-doe	01	male	18	1	1	3	0,12625079099962022	None	7,821724789920621	3,78835253020997	17:48:06.893917	16/01/2023	training	0,29626487499990617	0	3	3	
john-doe	01	male	18	1	1	4	0,12656270899969968	None	7,821724789920621	3,78835253020997	17:48:07.276819	16/01/2023	training	0,2520849999982602	0	2	2	
john-doe	01	male	18	1	1	5	0,12747558299997763	None	7,821724789920621	3,78835253020997	17:48:07.636446	16/01/2023	training	0,2278723750005156	1	4	1	
john-doe	01	male	18	1	1	5	0,12747558299997763	None	7,821724789920621	3,78835253020997	17:48:08.266186	16/01/2023	training	0,8575861249992158	1	4	3	
john-doe	01	male	18	1	1	5	0,12747558299997763	None	7,821724789920621	3,78835253020997	17:48:08.694023	16/01/2023	training	1,2854241250006453	0	4	4	
john-doe	01	male	18	1	1	6	0,1264002089992573	None	7,821724789920621	3,78835253020997	17:48:09.166408	16/01/2023	training	0,34161895900069794	1	2	3	
john-doe	01	male	18	1	1	6	0,1264002089992573	None	7,821724789920621	3,78835253020997	17:48:09.638997	16/01/2023	training	0,8142895840010169	1	2	3	
john-doe	01	male	18	1	1	6	0,1264002089992573	None	7,821724789920621	3,78835253020997	17:48:10.135221	16/01/2023	training	1,310544875001142	0	2	2	
john-doe	01	male	18	1	1	7	0,12645379199966555	None	7,821724789920621	3,78835253020997	17:48:10.786272	16/01/2023	training	0,520175042000119	1	2	3	
john-doe	01	male	18	1	1	7	0,12645379199966555	None	7,821724789920621	3,78835253020997	17:48:11.551235	16/01/2023	training	1,2852673340003093	0	2	2	
john-doe	01	male	18	1	1	8	0,1264169160003803	None	7,821724789920621	3,78835253020997	17:48:12.137453	16/01/2023	training	0,4554629999984172	0	2	2	
john-doe	01	male	18	1	1	9	0,12719708299846388	None	7,821724789920621	3,78835253020997	17:48:12.833961	16/01/2023	training	0,5653992080005992	0	3	3	
john-doe	01	male	18	1	1	10	0,12652441699901829	None	7,821724789920621	3,78835253020997	17:48:13.508747	16/01/2023	training	0,5439942920002068	0	2	2	
john-doe	01	male	18	1	1	11	0,12700637499983713	None	7,821724789920621	3,78835253020997	17:48:14.138847	16/01/2023	training	0,498976249999032	0	3	3	
john-doe	01	male	18	1	1	12	0,12637495799936005	None	7,821724789920621	3,78835253020997	17:48:14.590352	16/01/2023	training	0,3208911670008092	1	3	4	
john-doe	01	male	18	1	1	12	0,12637495799936005	None	7,821724789920621	3,78835253020997	17:48:15.218447	16/01/2023	training	0,9490500420015451	0	3	3	
john-doe	01	male	18	1	1	13	0,1267814160000853	None	7,821724789920621	3,78835253020997	17:48:15.871768	16/01/2023	training	0,5223800830008258	1	4	2	
john-doe	01	male	18	1	1	13	0,1267814160000853	None	7,821724789920621	3,78835253020997	17:48:16.616146	16/01/2023	training	1,2669195830003446	0	4	4	
john-doe	01	male	18	1	1	14	0,1270774579988938	None	7,821724789920621	3,78835253020997	17:48:17.244024	16/01/2023	training	0,4965470830011327	1	2	1	
john-doe	01	male	18	1	1	14	0,1270774579988938	None	7,821724789920621	3,78835253020997	17:48:17.671334	16/01/2023	training	0,9237842500006082	1	2	1	
john-doe	01	male	18	1	1	14	0,1270774579988938	None	7,821724789920621	3,78835253020997	17:48:18.278490	16/01/2023	training	1,531062041000041	1	2	1	
john-doe	01	male	18	1	1	14	0,1270774579988938	None	7,821724789920621	3,78835253020997	17:48:18.660934	16/01/2023	training	1,9135633750011039	0	2	2	
john-doe	01	male	18	1	1	15	0,12660412500008533	None	7,821724789920621	3,78835253020997	17:48:19.224445	16/01/2023	training	0,4326351670006261	1	2	3	
john-doe	01	male	18	1	1	15	0,12660412500008533	None	7,821724789920621	3,78835253020997	17:48:19.763498	16/01/2023	training	0,9718493750006019	0	2	2	
john-doe	01	male	18	1	1	16	0,1265552499990008	None	7,821724789920621	3,78835253020997	17:48:20.576237	16/01/2023	training	0,6814044170005218	0	4	4	
john-doe	01	male	18	1	1	17	0,12769870900046953	None	7,821724789920621	3,78835253020997	17:48:21.271635	16/01/2023	training	0,5628467080005066	1	1	3	
john-doe	01	male	18	1	1	17	0,12769870900046953	None	7,821724789920621	3,78835253020997	17:48:21.540895	16/01/2023	training	0,8322594580004079	0	1	1	
john-doe	01	male	18	1	1	18	0,12649912499909988	None	7,821724789920621	3,78835253020997	17:48:22.216795	16/01/2023	training	0,544580916999621	0	1	1	
john-doe	01	male	18	1	1	19	0,12644191700019292	None	7,821724789920621	3,78835253020997	17:48:22.801226	16/01/2023	training	0,4538231670012465	1	4	3	
john-doe	01	male	18	1	1	19	0,12644191700019292	None	7,821724789920621	3,78835253020997	17:48:23.207732	16/01/2023	training	0,8603209170014452	1	4	2	
john-doe	01	male	18	1	1	19	0,12644191700019292	None	7,821724789920621	3,78835253020997	17:48:23.589483	16/01/2023	training	1,2420157920005295	1	4	1	
john-doe	01	male	18	1	1	19	0,12644191700019292	None	7,821724789920621	3,78835253020997	17:48:23.904017	16/01/2023	training	1,5565940840006078	0	4	4	
john-doe	01	male	18	1	1	20	0,12669704099971568	None	7,821724789920621	3,78835253020997	17:48:24.534303	16/01/2023	no transition	0,4986217919995397	1	2	3	
john-doe	01	male	18	1	1	20	0,12669704099971568	None	7,821724789920621	3,78835253020997	17:48:24.871142	16/01/2023	no transition	0,8356000419989869	0	2	2	
john-doe	01	male	18	1	1	21	0,12664037499962433	None	7,821724789920621	3,78835253020997	17:48:25.591269	16/01/2023	training	0,5894432499990216	0	3	3	
john-doe	01	male	18	1	1	22	0,12652591599908192	None	7,821724789920621	3,78835253020997	17:48:26.379123	16/01/2023	training	0,6571282909990259	0	2	2	
john-doe	01	male	18	1	1	23	0,1266524999991816	None	7,821724789920621	3,78835253020997	17:48:27.076424	16/01/2023	training	0,5663896249989193	0	4	4	
john-doe	01	male	18	1	1	24	0,12654004199976043	None	7,821724789920621	3,78835253020997	17:48:27.641241	16/01/2023	training	0,43329979200098023	1	4	2	
john-doe	01	male	18	1	1	24	0,12654004199976043	None	7,821724789920621	3,78835253020997	17:48:27.953749	16/01/2023	training	0,7458114590008336	0	4	4	
john-doe	01	male	18	1	1	25	0,12692129199967894	None	7,821724789920621	3,78835253020997	17:48:28.785980	16/01/2023	training	0,7007249580001371	0	3	3	
john-doe	01	male	18	1	1	26	0,12644704200101842	None	7,821724789920621	3,78835253020997	17:48:29.393744	16/01/2023	training	0,47657120800067787	0	2	2	
john-doe	01	male	18	1	1	27	0,12649858399890945	None	7,821724789920621	3,78835253020997	17:48:29.843977	16/01/2023	training	0,3191445409993321	0	1	1	
john-doe	01	male	18	1	1	28	0,1265197500015347	None	7,821724789920621	3,78835253020997	17:48:30.316114	16/01/2023	training	0,341352374998678	1	2	4	
john-doe	01	male	18	1	1	28	0,1265197500015347	None	7,821724789920621	3,78835253020997	17:48:30.811175	16/01/2023	training	0,8364667499990901	1	2	3	
john-doe	01	male	18	1	1	28	0,1265197500015347	None	7,821724789920621	3,78835253020997	17:48:31.148546	16/01/2023	training	1,173888541999986	0	2	2	
john-doe	01	male	18	1	1	29	0,12790262499947858	None	7,821724789920621	3,78835253020997	17:48:31.554645	16/01/2023	training	0,27364420800040534	1	4	1	
john-doe	01	male	18	1	1	29	0,12790262499947858	None	7,821724789920621	3,78835253020997	17:48:31.981477	16/01/2023	training	0,7004812499999389	1	4	3	
john-doe	01	male	18	1	1	29	0,12790262499947858	None	7,821724789920621	3,78835253020997	17:48:32.318326	16/01/2023	training	1,0375371249992895	0	4	4	
john-doe	01	male	18	1	1	30	0,1264446669993049	None	7,821724789920621	3,78835253020997	17:48:32.791214	16/01/2023	training	0,34236054200118815	1	2	3	
john-doe	01	male	18	1	1	30	0,1264446669993049	None	7,821724789920621	3,78835253020997	17:48:33.150911	16/01/2023	training	0,7020758329999808	0	2	2	
john-doe	01	male	18	1	1	31	0,1271789579986944	None	7,821724789920621	3,78835253020997	17:48:33.533719	16/01/2023	training	0,25141391699980886	0	1	1	
john-doe	01	male	18	1	1	32	0,1264330419999169	None	7,821724789920621	3,78835253020997	17:48:34.029219	16/01/2023	training	0,36476712500007125	1	2	4	
john-doe	01	male	18	1	1	32	0,1264330419999169	None	7,821724789920621	3,78835253020997	17:48:34.456039	16/01/2023	training	0,7916473750010482	1	2	1	
john-doe	01	male	18	1	1	32	0,1264330419999169	None	7,821724789920621	3,78835253020997	17:48:34.816035	16/01/2023	training	1,1516585410008702	1	2	3	
john-doe	01	male	18	1	1	32	0,1264330419999169	None	7,821724789920621	3,78835253020997	17:48:35.108556	16/01/2023	training	1,4441903749993799	0	2	2	
john-doe	01	male	18	1	1	33	0,12627975000032166	None	7,821724789920621	3,78835253020997	17:48:35.513937	16/01/2023	training	0,2749924170002487	1	3	1	
john-doe	01	male	18	1	1	33	0,12627975000032166	None	7,821724789920621	3,78835253020997	17:48:35.895975	16/01/2023	training	0,6570517080017453	1	3	2	
john-doe	01	male	18	1	1	33	0,12627975000032166	None	7,821724789920621	3,78835253020997	17:48:36.258119	16/01/2023	training	1,0190957500017248	0	3	3	
john-doe	01	male	18	1	1	34	0,12702591700144694	None	7,821724789920621	3,78835253020997	17:48:38.169510	16/01/2023	training	1,7798599580000882	0	1	1	
john-doe	01	male	18	1	1	35	0,1265493749997404	None	7,821724789920621	3,78835253020997	17:48:38.731267	16/01/2023	training	0,4298187090007559	0	1	1	
john-doe	01	male	18	1	1	36	0,12652141699982167	None	7,821724789920621	3,78835253020997	17:48:39.406865	16/01/2023	training	0,5431544999992184	1	2	3	
john-doe	01	male	18	1	1	36	0,12652141699982167	None	7,821724789920621	3,78835253020997	17:48:40.058622	16/01/2023	training	1,1950780829993164	0	2	2	
john-doe	01	male	18	1	1	37	0,12680579100015166	None	7,821724789920621	3,78835253020997	17:48:40.778786	16/01/2023	training	0,5890342909988249	1	1	4	
john-doe	01	male	18	1	1	37	0,12680579100015166	None	7,821724789920621	3,78835253020997	17:48:41.160940	16/01/2023	training	0,9712750409998989	0	1	1	
john-doe	01	male	18	1	1	38	0,12644962500053225	None	7,821724789920621	3,78835253020997	17:48:41.791263	16/01/2023	training	0,49977191600009974	0	1	1	
john-doe	01	male	18	1	1	39	0,1263853750006092	None	7,821724789920621	3,78835253020997	17:48:42.691214	16/01/2023	training	0,7696216669992282	1	2	3	
john-doe	01	male	18	1	1	39	0,1263853750006092	None	7,821724789920621	3,78835253020997	17:48:43.096871	16/01/2023	training	1,1752544169994508	0	2	2	
john-doe	01	male	18	1	1	40	0,1265991660002328	None	7,821724789920621	3,78835253020997	17:48:43.728288	16/01/2023	no transition	0,500258334001046	1	3	1	
john-doe	01	male	18	1	1	40	0,1265991660002328	None	7,821724789920621	3,78835253020997	17:48:44.063507	16/01/2023	no transition	0,8354947919997358	1	3	4	
john-doe	01	male	18	1	1	40	0,1265991660002328	None	7,821724789920621	3,78835253020997	17:48:44.401674	16/01/2023	no transition	1,1736234170002717	0	3	3	userquit