subject_name	subject_number	subject_sex	subject_age	session	block	trial	RSI_time	frame_rate	frame_time	frame_sd	time	date	trial_type	RT	error	stimulus	response	quit_log	
john-doe	01	male	18	1	1	1	0,0	None	8,558339983195031	3,464223724056938	11:29:38.926963	10/01/2023	Training	1,8556560839997474	0	3	3	
john-doe	01	male	18	1	1	2	0,258180750000065	None	8,558339983195031	3,464223724056938	11:29:39.804022	10/01/2023	Training	0,6105129999996279	0	3	3	
john-doe	01	male	18	1	1	3	0,25718495799992525	None	8,558339983195031	3,464223724056938	11:29:40.771649	10/01/2023	Training	0,7037563750000118	0	1	1	
john-doe	01	male	18	1	1	4	0,25697350000064034	None	8,558339983195031	3,464223724056938	11:29:41.536784	10/01/2023	Training	0,5007094160000634	0	3	3	
john-doe	01	male	18	1	1	5	0,2573265840001113	None	8,558339983195031	3,464223724056938	11:29:43.111570	10/01/2023	Training	1,3100630409999212	0	1	1	
john-doe	01	male	18	1	1	6	0,25726858300004096	None	8,558339983195031	3,464223724056938	11:29:43.876517	10/01/2023	Training	0,49981429200033745	0	1	1	
john-doe	01	male	18	1	1	7	0,257480124999347	None	8,558339983195031	3,464223724056938	11:29:44.598220	10/01/2023	Training	0,4574579170002835	0	2	2	
john-doe	01	male	18	1	1	8	0,25702149999960966	None	8,558339983195031	3,464223724056938	11:29:45.384123	10/01/2023	Training	0,5213085420000425	0	2	2	
john-doe	01	male	18	1	1	9	0,2572417920000589	None	8,558339983195031	3,464223724056938	11:29:46.104391	10/01/2023	Training	0,45636575000025914	0	2	2	
john-doe	01	male	18	1	1	10	0,2582814170000347	None	8,558339983195031	3,464223724056938	11:29:47.004318	10/01/2023	Training	0,6344574169997941	0	4	4	
john-doe	01	male	18	1	1	11	0,25705104200005735	None	8,558339983195031	3,464223724056938	11:29:47.904050	10/01/2023	Training	0,6356776660004471	0	1	1	
john-doe	01	male	18	1	1	12	0,25736329200026375	None	8,558339983195031	3,464223724056938	11:29:48.624193	10/01/2023	Training	0,4559238749998258	0	1	1	
john-doe	01	male	18	1	1	13	0,25731020900002477	None	8,558339983195031	3,464223724056938	11:29:49.479672	10/01/2023	Training	0,5912505830001464	0	2	2	
john-doe	01	male	18	1	1	14	0,25735625000015716	None	8,558339983195031	3,464223724056938	11:29:50.379707	10/01/2023	Training	0,6340855409998767	0	1	1	
john-doe	01	male	18	1	1	15	0,2571880000004967	None	8,558339983195031	3,464223724056938	11:29:51.257722	10/01/2023	Training	0,6138575830000264	0	3	3	
john-doe	01	male	18	1	1	16	0,25732754199998453	None	8,558339983195031	3,464223724056938	11:29:52.088968	10/01/2023	Training	0,5666378749992873	0	4	4	
john-doe	01	male	18	1	1	17	0,2571482079993075	None	8,558339983195031	3,464223724056938	11:29:53.090581	10/01/2023	Training	0,737618250000196	0	2	2	
john-doe	01	male	18	1	1	18	0,2570847919996595	None	8,558339983195031	3,464223724056938	11:30:03.678003	10/01/2023	Training	10,323492292000083	0	4	4	
john-doe	01	male	18	1	1	19	0,25721166700077447	None	8,558339983195031	3,464223724056938	11:30:04.869580	10/01/2023	Training	0,9181921669996882	0	3	3	
john-doe	01	male	18	1	1	20	0,2573617910002213	None	8,558339983195031	3,464223724056938	11:30:06.062227	10/01/2023	No transition	0,9282817500006786	1	4	2	
john-doe	01	male	18	1	1	20	0,2573617910002213	None	8,558339983195031	3,464223724056938	11:30:06.489320	10/01/2023	No transition	1,3555327080002826	0	4	4	userquit
john-doe	01	male	18	1	1	21	0,0	None	8,542675067229622	3,173052038603364	11:32:08.781476	10/01/2023	Random	0,5500342909999745	1	1	2	
john-doe	01	male	18	1	1	21	0,0	None	8,542675067229622	3,173052038603364	11:32:09.026644	10/01/2023	Random	0,7953982910003106	0	1	1	
john-doe	01	male	18	1	1	22	0,25749229099983495	None	8,542675067229622	3,173052038603364	11:32:10.331573	10/01/2023	Random	1,0403552079997098	1	4	1	
john-doe	01	male	18	1	1	22	0,25749229099983495	None	8,542675067229622	3,173052038603364	11:32:10.714169	10/01/2023	Random	1,4230267499997353	1	4	2	
john-doe	01	male	18	1	1	22	0,25749229099983495	None	8,542675067229622	3,173052038603364	11:32:11.164115	10/01/2023	Random	1,8730093329995725	0	4	4	
john-doe	01	male	18	1	1	23	0,2573338749998584	None	8,542675067229622	3,173052038603364	11:32:12.673779	10/01/2023	Random	1,2447799170004146	0	2	2	
john-doe	01	male	18	1	1	24	0,25719945800028654	None	8,542675067229622	3,173052038603364	11:32:13.369368	10/01/2023	Random	0,43053504199997406	0	2	2	
john-doe	01	male	18	1	1	25	0,25750799999968876	None	8,542675067229622	3,173052038603364	11:32:14.202260	10/01/2023	Random	0,5681279579994225	0	3	3	
john-doe	01	male	18	1	1	26	0,2572644580004635	None	8,542675067229622	3,173052038603364	11:32:15.124742	10/01/2023	Random	0,6580679170001531	0	2	2	
john-doe	01	male	18	1	1	27	0,25787399999990157	None	8,542675067229622	3,173052038603364	11:32:15.934280	10/01/2023	Random	0,5448436249998849	0	1	1	
john-doe	01	male	18	1	1	28	0,25734633299998677	None	8,542675067229622	3,173052038603364	11:32:17.104403	10/01/2023	Random	0,9055995830003667	0	3	3	
john-doe	01	male	18	1	1	29	0,25719591699999	None	8,542675067229622	3,173052038603364	11:32:17.779159	10/01/2023	Random	0,4102597920000335	0	3	3	
john-doe	01	male	18	1	1	30	0,25718370899994625	None	8,542675067229622	3,173052038603364	11:32:18.612035	10/01/2023	Random	0,5681781249995765	0	2	2	
john-doe	01	male	18	1	1	31	0,25715437500002736	None	8,542675067229622	3,173052038603364	11:32:19.332099	10/01/2023	Random	0,4556602910006404	0	2	2	
john-doe	01	male	18	1	1	32	0,25706454100054543	None	8,542675067229622	3,173052038603364	11:32:19.984996	10/01/2023	Random	0,3887736249998852	0	2	2	
john-doe	01	male	18	1	1	33	0,2573685409997779	None	8,542675067229622	3,173052038603364	11:32:20.884483	10/01/2023	Random	0,6354036669999914	1	4	1	
john-doe	01	male	18	1	1	33	0,2573685409997779	None	8,542675067229622	3,173052038603364	11:32:21.244002	10/01/2023	Random	0,9950446250004461	0	4	4	
john-doe	01	male	18	1	1	34	0,25778691599953163	None	8,542675067229622	3,173052038603364	11:32:22.009834	10/01/2023	Random	0,500884333000613	0	4	4	
john-doe	01	male	18	1	1	35	0,2579216250005629	None	8,542675067229622	3,173052038603364	11:32:22.798940	10/01/2023	Random	0,5239510829997016	0	1	1	
john-doe	01	male	18	1	1	36	0,2571709579997332	None	8,542675067229622	3,173052038603364	11:32:23.473013	10/01/2023	Random	0,4099465830004192	0	1	1	
john-doe	01	male	18	1	1	37	0,25745870799983095	None	8,542675067229622	3,173052038603364	11:32:24.462055	10/01/2023	Random	0,7245251249996727	0	4	4	
john-doe	01	male	18	1	1	38	0,2571745830000509	None	8,542675067229622	3,173052038603364	11:32:25.114609	10/01/2023	Random	0,3884375830002682	0	1	1	
john-doe	01	male	18	1	1	39	0,25717620799969154	None	8,542675067229622	3,173052038603364	11:32:26.150003	10/01/2023	Random	0,771412041000076	0	2	2	
john-doe	01	male	18	1	1	40	0,2572602080008437	None	8,542675067229622	3,173052038603364	11:32:26.824589	10/01/2023	No transition	0,41056370899968897	0	2	2	userquit
john-doe	01	male	18	1	2	1	0,0	None	7,902085781510124	3,7138184709637962	11:37:22.931088	10/01/2023	Random	0,7078218339993327	1	3	2	
john-doe	01	male	18	1	2	1	0,0	None	7,902085781510124	3,7138184709637962	11:37:23.312993	10/01/2023	Random	1,0898381669994706	1	3	2	
john-doe	01	male	18	1	2	1	0,0	None	7,902085781510124	3,7138184709637962	11:37:23.853078	10/01/2023	Random	1,6299989169992841	0	3	3	
john-doe	01	male	18	1	2	2	0,25726174999999785	None	7,902085781510124	3,7138184709637962	11:37:24.595488	10/01/2023	Random	0,4780713749996721	0	2	2	
john-doe	01	male	18	1	2	3	0,2573835830007738	None	7,902085781510124	3,7138184709637962	11:37:25.360758	10/01/2023	Random	0,5005508750000445	0	1	1	
john-doe	01	male	18	1	2	4	0,2572860000000219	None	7,902085781510124	3,7138184709637962	11:37:26.170810	10/01/2023	Random	0,5454723330003617	0	2	2	
john-doe	01	male	18	1	2	5	0,2571981669998422	None	7,902085781510124	3,7138184709637962	11:37:26.845857	10/01/2023	Random	0,410308540999722	0	2	2	
john-doe	01	male	18	1	2	6	0,25723816600020655	None	7,902085781510124	3,7138184709637962	11:37:27.588501	10/01/2023	Random	0,47832587500033696	0	3	3	
john-doe	01	male	18	1	2	7	0,25730229199962196	None	7,902085781510124	3,7138184709637962	11:37:28.420979	10/01/2023	Random	0,5684930420002274	0	3	3	
john-doe	01	male	18	1	2	8	0,2575682910000978	None	7,902085781510124	3,7138184709637962	11:37:29.232917	10/01/2023	Random	0,5475027499996941	0	4	4	
john-doe	01	male	18	1	2	9	0,257032958000309	None	7,902085781510124	3,7138184709637962	11:37:30.110150	10/01/2023	Random	0,6131813329993747	0	1	1	
john-doe	01	male	18	1	2	10	0,257093750000422	None	7,902085781510124	3,7138184709637962	11:37:31.031147	10/01/2023	Random	0,657136707999598	1	4	2	
john-doe	01	male	18	1	2	10	0,257093750000422	None	7,902085781510124	3,7138184709637962	11:37:31.435428	10/01/2023	Random	1,0614230000001044	1	4	3	
john-doe	01	male	18	1	2	10	0,257093750000422	None	7,902085781510124	3,7138184709637962	11:37:31.817730	10/01/2023	Random	1,4437375830002566	0	4	4	
john-doe	01	male	18	1	2	11	0,2576089170006526	None	7,902085781510124	3,7138184709637962	11:37:32.673197	10/01/2023	Random	0,5910569169991504	1	3	2	
john-doe	01	male	18	1	2	11	0,2576089170006526	None	7,902085781510124	3,7138184709637962	11:37:33.033017	10/01/2023	Random	0,9509765419998075	0	3	3	
john-doe	01	male	18	1	2	12	0,2575068330006616	None	7,902085781510124	3,7138184709637962	11:37:33.730945	10/01/2023	Random	0,4335352079997392	0	2	2	
john-doe	01	male	18	1	2	13	0,2570187920000535	None	7,902085781510124	3,7138184709637962	11:37:34.631397	10/01/2023	Random	0,6359731249995093	0	3	3	
john-doe	01	male	18	1	2	14	0,25708024999948975	None	7,902085781510124	3,7138184709637962	11:37:35.418118	10/01/2023	Random	0,5221044580002854	0	2	2	
john-doe	01	male	18	1	2	15	0,25637854100023105	None	7,902085781510124	3,7138184709637962	11:37:36.070579	10/01/2023	Random	0,38925229199958267	0	3	3	
john-doe	01	male	18	1	2	16	0,2571614580001551	None	7,902085781510124	3,7138184709637962	11:37:36.745899	10/01/2023	Random	0,4112439170003199	0	2	2	
john-doe	01	male	18	1	2	17	0,2571150409994516	None	7,902085781510124	3,7138184709637962	11:37:37.488816	10/01/2023	Random	0,4789014580001094	0	3	3	
john-doe	01	male	18	1	2	18	0,25759300000026997	None	7,902085781510124	3,7138184709637962	11:37:38.300415	10/01/2023	Random	0,5466892499998721	0	4	4	
john-doe	01	male	18	1	2	19	0,2572286670001631	None	7,902085781510124	3,7138184709637962	11:37:38.995794	10/01/2023	Random	0,4307771249996222	0	4	4	
john-doe	01	male	18	1	2	20	0,25837070800025685	None	7,902085781510124	3,7138184709637962	11:37:39.941195	10/01/2023	No transition	0,6801399589994617	0	2	2	userquit
john-doe	01	male	18	1	2	21	0,0	None	7,717296218487252	4,309570038392823	11:40:58.056792	10/01/2023	Random	0,9773536669999885	0	3	3	
john-doe	01	male	18	1	2	22	0,25766333299998223	None	7,717296218487252	4,309570038392823	11:40:58.844675	10/01/2023	Random	0,5233203750003668	0	1	1	
john-doe	01	male	18	1	2	23	0,25708066599963786	None	7,717296218487252	4,309570038392823	11:40:59.564756	10/01/2023	Random	0,45595137500004057	0	1	1	
john-doe	01	male	18	1	2	24	0,2576151659995958	None	7,717296218487252	4,309570038392823	11:41:00.374681	10/01/2023	Random	0,5451156250001077	0	4	4	
john-doe	01	male	18	1	2	25	0,25723495799957163	None	7,717296218487252	4,309570038392823	11:41:01.094933	10/01/2023	Random	0,45576291699944704	0	4	4	
john-doe	01	male	18	1	2	26	0,2575144580005144	None	7,717296218487252	4,309570038392823	11:41:01.971945	10/01/2023	Random	0,6115207910006575	0	2	2	
john-doe	01	male	18	1	2	27	0,25631650000013906	None	7,717296218487252	4,309570038392823	11:41:02.782138	10/01/2023	Random	0,5464647079998031	0	1	1	
john-doe	01	male	18	1	2	28	0,2572730000001684	None	7,717296218487252	4,309570038392823	11:41:03.547194	10/01/2023	Random	0,5005954170001132	0	2	2	
john-doe	01	male	18	1	2	29	0,25729737500023475	None	7,717296218487252	4,309570038392823	11:41:04.289389	10/01/2023	Random	0,47769037499983824	0	3	3	
john-doe	01	male	18	1	2	30	0,2571408750000046	None	7,717296218487252	4,309570038392823	11:41:05.076942	10/01/2023	Random	0,523653166999793	1	2	1	
john-doe	01	male	18	1	2	30	0,2571408750000046	None	7,717296218487252	4,309570038392823	11:41:05.144148	10/01/2023	Random	0,5909985420003068	0	2	2	
john-doe	01	male	18	1	2	31	0,25756991599973844	None	7,717296218487252	4,309570038392823	11:41:05.864336	10/01/2023	Random	0,4564865419997659	0	2	2	
john-doe	01	male	18	1	2	32	0,25716416700015543	None	7,717296218487252	4,309570038392823	11:41:06.719661	10/01/2023	Random	0,5915011249999225	0	4	4	
john-doe	01	male	18	1	2	33	0,25720366699988517	None	7,717296218487252	4,309570038392823	11:41:07.486163	10/01/2023	Random	0,5021427499996207	0	4	4	
john-doe	01	male	18	1	2	34	0,2573566250002841	None	7,717296218487252	4,309570038392823	11:41:08.407437	10/01/2023	Random	0,6569822920000661	0	1	1	
john-doe	01	male	18	1	2	35	0,25756333400022413	None	7,717296218487252	4,309570038392823	11:41:09.284760	10/01/2023	Random	0,6127519580004446	0	3	3	
john-doe	01	male	18	1	2	36	0,25720083299984253	None	7,717296218487252	4,309570038392823	11:41:09.892416	10/01/2023	Random	0,3438536249996105	0	2	2	
john-doe	01	male	18	1	2	37	0,2575708749991463	None	7,717296218487252	4,309570038392823	11:41:11.219767	10/01/2023	Random	1,062530290999348	0	1	1	
john-doe	01	male	18	1	2	38	0,25761316700027237	None	7,717296218487252	4,309570038392823	11:41:12.007044	10/01/2023	Random	0,5226325000003271	1	4	3	
john-doe	01	male	18	1	2	38	0,25761316700027237	None	7,717296218487252	4,309570038392823	11:41:12.052587	10/01/2023	Random	0,5683282079999117	0	4	4	
john-doe	01	male	18	1	2	39	0,2571530840004925	None	7,717296218487252	4,309570038392823	11:41:12.771977	10/01/2023	Random	0,4559127080001417	0	4	4	
john-doe	01	male	18	1	2	40	0,2571244579994527	None	7,717296218487252	4,309570038392823	11:41:13.581977	10/01/2023	No transition	0,5461742909992608	0	2	2	userquit
john-doe	01	male	18	1	3	1	0,0	None	10,276519260499475	5,438917614081657	11:43:07.231742	10/01/2023	Random	0,7297643749998315	0	4	4	
john-doe	01	male	18	1	3	2	0,2574873749999824	None	10,276519260499475	5,438917614081657	11:43:08.064419	10/01/2023	Random	0,5680619999993723	0	3	3	
john-doe	01	male	18	1	3	3	0,2580030409999381	None	10,276519260499475	5,438917614081657	11:43:08.829089	10/01/2023	Random	0,4996697500000664	0	4	4	
john-doe	01	male	18	1	3	4	0,2573532920005164	None	10,276519260499475	5,438917614081657	11:43:09.706616	10/01/2023	Random	0,6128623330005212	0	2	2	
john-doe	01	male	18	1	3	5	0,25727816699964023	None	10,276519260499475	5,438917614081657	11:43:10.427007	10/01/2023	Random	0,4564318339998863	0	2	2	
john-doe	01	male	18	1	3	6	0,25737191699954565	None	10,276519260499475	5,438917614081657	11:43:11.214510	10/01/2023	Random	0,5229922919997989	0	2	2	
john-doe	01	male	18	1	3	7	0,2572970000001078	None	10,276519260499475	5,438917614081657	11:43:12.429564	10/01/2023	Random	0,9504735000000437	1	4	1	
john-doe	01	male	18	1	3	7	0,2572970000001078	None	10,276519260499475	5,438917614081657	11:43:12.968872	10/01/2023	Random	1,4899325420001333	1	4	2	
john-doe	01	male	18	1	3	7	0,2572970000001078	None	10,276519260499475	5,438917614081657	11:43:13.508881	10/01/2023	Random	2,029975834000652	0	4	4	
john-doe	01	male	18	1	3	8	0,25743591700029356	None	10,276519260499475	5,438917614081657	11:43:14.521828	10/01/2023	Random	0,7488500419995034	0	1	1	
john-doe	01	male	18	1	3	9	0,2574043750000783	None	10,276519260499475	5,438917614081657	11:43:15.671060	10/01/2023	Random	0,8847559169998931	0	1	1	
john-doe	01	male	18	1	3	10	0,2577341249998426	None	10,276519260499475	5,438917614081657	11:43:16.906805	10/01/2023	Random	0,9699507909999738	0	2	2	
john-doe	01	male	18	1	3	11	0,2572752080004648	None	10,276519260499475	5,438917614081657	11:43:18.437509	10/01/2023	Random	1,2651429999996253	1	1	3	
john-doe	01	male	18	1	3	11	0,2572752080004648	None	10,276519260499475	5,438917614081657	11:43:18.954309	10/01/2023	Random	1,7820502499998838	0	1	1	
john-doe	01	male	18	1	3	12	0,2576130830002512	None	10,276519260499475	5,438917614081657	11:43:19.786820	10/01/2023	Random	0,5675317499999437	0	2	2	
john-doe	01	male	18	1	3	13	0,2574877499991999	None	10,276519260499475	5,438917614081657	11:43:20.709139	10/01/2023	Random	0,6579502909999064	0	3	3	
john-doe	01	male	18	1	3	14	0,25709329200071807	None	10,276519260499475	5,438917614081657	11:43:21.452002	10/01/2023	Random	0,47900141700029053	0	3	3	
john-doe	01	male	18	1	3	15	0,25719604100049764	None	10,276519260499475	5,438917614081657	11:43:22.307067	10/01/2023	Random	0,5901920420001261	0	2	2	
john-doe	01	male	18	1	3	16	0,25739208300001337	None	10,276519260499475	5,438917614081657	11:43:23.206759	10/01/2023	Random	0,6348147919998155	0	4	4	
john-doe	01	male	18	1	3	17	0,2572857919994931	None	10,276519260499475	5,438917614081657	11:43:24.084751	10/01/2023	Random	0,613499375000174	0	2	2	
john-doe	01	male	18	1	3	18	0,25719979200039234	None	10,276519260499475	5,438917614081657	11:43:24.759320	10/01/2023	Random	0,41066891700029373	0	3	3	
john-doe	01	male	18	1	3	19	0,2572944160001498	None	10,276519260499475	5,438917614081657	11:43:25.906836	10/01/2023	Random	0,8830407089999426	1	1	4	
john-doe	01	male	18	1	3	19	0,2572944160001498	None	10,276519260499475	5,438917614081657	11:43:26.165354	10/01/2023	Random	1,1417284999997719	0	1	1	
john-doe	01	male	18	1	3	20	0,257287833999726	None	10,276519260499475	5,438917614081657	11:43:26.806952	10/01/2023	No transition	0,376959541999895	0	1	1	userquit
john-doe	01	male	18	1	3	21	0,0	None	8,223912109254137	2,4970369074141794	14:22:12.403459	10/01/2023	Random	0,8637782080004399	0	4	4	
john-doe	01	male	18	1	3	22	0,2574369160010974	None	8,223912109254137	2,4970369074141794	14:22:13.125561	10/01/2023	Random	0,4573935000007623	1	2	3	
john-doe	01	male	18	1	3	22	0,2574369160010974	None	8,223912109254137	2,4970369074141794	14:22:13.460489	10/01/2023	Random	0,792409375000716	0	2	2	
john-doe	01	male	18	1	3	23	0,2576487079986691	None	8,223912109254137	2,4970369074141794	14:22:14.135947	10/01/2023	Random	0,4110439589985617	0	3	3	
john-doe	01	male	18	1	3	24	0,257308334001209	None	8,223912109254137	2,4970369074141794	14:22:15.035674	10/01/2023	Random	0,6354789999986679	0	4	4	
john-doe	01	male	18	1	3	25	0,25713987499875657	None	8,223912109254137	2,4970369074141794	14:22:15.868684	10/01/2023	Random	0,568870875000357	0	3	3	
john-doe	01	male	18	1	3	26	0,25731825000002573	None	8,223912109254137	2,4970369074141794	14:22:16.633297	10/01/2023	Random	0,5002084170009766	1	4	2	
john-doe	01	male	18	1	3	26	0,25731825000002573	None	8,223912109254137	2,4970369074141794	14:22:17.310333	10/01/2023	Random	1,1772854999999254	1	4	1	
john-doe	01	male	18	1	3	26	0,25731825000002573	None	8,223912109254137	2,4970369074141794	14:22:18.298120	10/01/2023	Random	2,165099375000864	0	4	4	
john-doe	01	male	18	1	3	27	0,25758624999980384	None	8,223912109254137	2,4970369074141794	14:22:19.243304	10/01/2023	Random	0,6805620830000407	0	1	1	
john-doe	01	male	18	1	3	28	0,2571628330006206	None	8,223912109254137	2,4970369074141794	14:22:20.210994	10/01/2023	Random	0,7036742919990502	0	2	2	
john-doe	01	male	18	1	3	29	0,25710433299900615	None	8,223912109254137	2,4970369074141794	14:22:21.000317	10/01/2023	Random	0,524844874998962	0	2	2	
john-doe	01	male	18	1	3	30	0,2572561670003779	None	8,223912109254137	2,4970369074141794	14:22:21.898312	10/01/2023	Random	0,6324892079992424	0	1	1	
john-doe	01	male	18	1	3	31	0,2573689580003702	None	8,223912109254137	2,4970369074141794	14:22:22.843515	10/01/2023	Random	0,6802165419994708	0	1	1	
john-doe	01	male	18	1	3	32	0,25716079199992237	None	8,223912109254137	2,4970369074141794	14:22:23.856204	10/01/2023	Random	0,7487921250012732	0	2	2	
john-doe	01	male	18	1	3	33	0,2571293330001936	None	8,223912109254137	2,4970369074141794	14:22:24.553757	10/01/2023	Random	0,43298200000026554	0	2	2	
john-doe	01	male	18	1	3	34	0,25701816600121674	None	8,223912109254137	2,4970369074141794	14:22:25.543302	10/01/2023	Random	0,7245132500011096	0	1	1	
john-doe	01	male	18	1	3	35	0,25718562499969266	None	8,223912109254137	2,4970369074141794	14:22:26.387191	10/01/2023	Random	0,5793197080001846	0	4	4	
john-doe	01	male	18	1	3	36	0,2571337079989462	None	8,223912109254137	2,4970369074141794	14:22:27.343863	10/01/2023	Random	0,692097917000865	0	1	1	
john-doe	01	male	18	1	3	37	0,2573306250014866	None	8,223912109254137	2,4970369074141794	14:22:28.221831	10/01/2023	Random	0,613804667000295	0	1	1	
john-doe	01	male	18	1	3	38	0,2571140000000014	None	8,223912109254137	2,4970369074141794	14:22:29.076068	10/01/2023	Random	0,5901172920002864	0	2	2	
john-doe	01	male	18	1	3	39	0,25725683300152014	None	8,223912109254137	2,4970369074141794	14:22:29.863597	10/01/2023	Random	0,5235671250011364	0	2	2	
john-doe	01	male	18	1	3	40	0,25717654199979734	None	8,223912109254137	2,4970369074141794	14:22:30.808491	10/01/2023	No transition	0,6809451670014823	0	4	4	userquit
john-doe	01	male	18	1	4	1	0,0	116,97268925228603	8,043631302527746	2,780482432794439	14:41:20.899995	10/01/2023	Random	0,6707994589996815	1	3	2	
john-doe	01	male	18	1	4	1	0,0	116,97268925228603	8,043631302527746	2,780482432794439	14:41:21.394391	10/01/2023	Random	1,1652107089994388	0	3	3	
john-doe	01	male	18	1	4	2	0,24934350000148697	116,97268925228603	8,043631302527746	2,780482432794439	14:41:22.204284	10/01/2023	Random	0,5524137920001522	0	1	1	
john-doe	01	male	18	1	4	3	0,2492218330007745	116,97268925228603	8,043631302527746	2,780482432794439	14:41:22.958712	10/01/2023	Random	0,49690004200056137	0	2	2	
john-doe	01	male	18	1	4	4	0,2491535830013163	116,97268925228603	8,043631302527746	2,780482432794439	14:41:23.779306	10/01/2023	Random	0,5640130409992707	0	4	4	
john-doe	01	male	18	1	4	5	0,24946949999866774	116,97268925228603	8,043631302527746	2,780482432794439	14:41:24.521887	10/01/2023	Random	0,4855158750015107	0	4	4	
john-doe	01	male	18	1	4	6	0,24904912500096543	116,97268925228603	8,043631302527746	2,780482432794439	14:41:25.129668	10/01/2023	Random	0,35128487499969197	0	4	4	
john-doe	01	male	18	1	4	7	0,24896616600017296	116,97268925228603	8,043631302527746	2,780482432794439	14:41:26.074951	10/01/2023	Random	0,6888953340003354	1	3	2	
john-doe	01	male	18	1	4	7	0,24896616600017296	116,97268925228603	8,043631302527746	2,780482432794439	14:41:26.411035	10/01/2023	Random	1,0250292920009088	0	3	3	
john-doe	01	male	18	1	4	8	0,2493594999996276	116,97268925228603	8,043631302527746	2,780482432794439	14:41:27.424802	10/01/2023	Random	0,7572964160008269	0	1	1	
john-doe	01	male	18	1	4	9	0,24906066599942278	116,97268925228603	8,043631302527746	2,780482432794439	14:41:28.212216	10/01/2023	Random	0,5258549160007533	0	1	1	
john-doe	01	male	18	1	4	10	0,24897170800068125	116,97268925228603	8,043631302527746	2,780482432794439	14:41:29.179864	10/01/2023	Random	0,7105238750009448	0	1	1	
john-doe	01	male	18	1	4	11	0,24890924999999697	116,97268925228603	8,043631302527746	2,780482432794439	14:41:29.987980	10/01/2023	Random	0,5522160830005305	0	2	2	
john-doe	01	male	18	1	4	12	0,24938337499952468	116,97268925228603	8,043631302527746	2,780482432794439	14:41:30.799630	10/01/2023	Random	0,5550830410011258	0	3	3	
john-doe	01	male	18	1	4	13	0,24939104199984286	116,97268925228603	8,043631302527746	2,780482432794439	14:41:31.676863	10/01/2023	Random	0,6206620830016618	0	1	1	
john-doe	01	male	18	1	4	14	0,24907279199942423	116,97268925228603	8,043631302527746	2,780482432794439	14:41:32.532131	10/01/2023	Random	0,5924040830013837	0	1	1	
john-doe	01	male	18	1	4	15	0,24931925000055344	116,97268925228603	8,043631302527746	2,780482432794439	14:41:33.387381	10/01/2023	Random	0,5987377499986906	0	4	4	
john-doe	01	male	18	1	4	16	0,2487816249995376	116,97268925228603	8,043631302527746	2,780482432794439	14:41:34.174987	10/01/2023	Random	0,531705334000435	0	3	3	
john-doe	01	male	18	1	4	17	0,24868516700007604	116,97268925228603	8,043631302527746	2,780482432794439	14:41:35.208888	10/01/2023	Random	0,7781420840001374	1	4	2	
john-doe	01	male	18	1	4	17	0,24868516700007604	116,97268925228603	8,043631302527746	2,780482432794439	14:41:35.614247	10/01/2023	Random	1,1834852499996487	1	4	1	
john-doe	01	male	18	1	4	17	0,24868516700007604	116,97268925228603	8,043631302527746	2,780482432794439	14:41:36.063546	10/01/2023	Random	1,632849499999793	1	4	2	
john-doe	01	male	18	1	4	17	0,24868516700007604	116,97268925228603	8,043631302527746	2,780482432794439	14:41:36.424510	10/01/2023	Random	1,993783459000042	0	4	4	
john-doe	01	male	18	1	4	18	0,24892008300048474	116,97268925228603	8,043631302527746	2,780482432794439	14:41:37.323753	10/01/2023	Random	0,643040667000605	0	3	3	
john-doe	01	male	18	1	4	19	0,24920954099980008	116,97268925228603	8,043631302527746	2,780482432794439	14:41:38.225068	10/01/2023	Random	0,644964125000115	0	4	4	
john-doe	01	male	18	1	4	20	0,2498517920012091	116,97268925228603	8,043631302527746	2,780482432794439	14:41:39.034554	10/01/2023	No transition	0,5522943750002014	0	1	1	userquit
john-doe	01	male	18	1	4	21	0,0	None	8,893146714292337	3,8793216673761326	14:43:56.915927	10/01/2023	Random	1,4939490830001887	0	3	3	
john-doe	01	male	18	1	4	22	0,25772104099996795	None	8,893146714292337	3,8793216673761326	14:43:57.835897	10/01/2023	Random	0,6538134590009577	0	1	1	
john-doe	01	male	18	1	4	23	0,25772929199956707	None	8,893146714292337	3,8793216673761326	14:43:58.714960	10/01/2023	Random	0,6129723750000267	0	1	1	
john-doe	01	male	18	1	4	24	0,25774249999994936	None	8,893146714292337	3,8793216673761326	14:43:59.570365	10/01/2023	Random	0,5858673330003512	0	3	3	
john-doe	01	male	18	1	4	25	0,2574213339994458	None	8,893146714292337	3,8793216673761326	14:44:00.763243	10/01/2023	Random	0,9281740839996928	0	2	2	
john-doe	01	male	18	1	4	26	0,25857929199992213	None	8,893146714292337	3,8793216673761326	14:44:01.842347	10/01/2023	Random	0,8078151659992727	0	3	3	
john-doe	01	male	18	1	4	27	0,2575137089988857	None	8,893146714292337	3,8793216673761326	14:44:03.147137	10/01/2023	Random	1,040391250000539	0	1	1	
john-doe	01	male	18	1	4	28	0,25765279100050975	None	8,893146714292337	3,8793216673761326	14:44:04.204869	10/01/2023	Random	0,786158290999083	0	2	2	
john-doe	01	male	18	1	4	29	0,257853791999878	None	8,893146714292337	3,8793216673761326	14:44:04.925138	10/01/2023	Random	0,4547865410004306	0	2	2	
john-doe	01	male	18	1	4	30	0,25762612499966053	None	8,893146714292337	3,8793216673761326	14:44:05.555724	10/01/2023	Random	0,36584887500066543	0	2	2	
john-doe	01	male	18	1	4	31	0,2585561249998136	None	8,893146714292337	3,8793216673761326	14:44:06.456433	10/01/2023	Random	0,6347897079995164	0	4	4	
john-doe	01	male	18	1	4	32	0,25769366700114915	None	8,893146714292337	3,8793216673761326	14:44:07.355687	10/01/2023	Random	0,6326102499988338	0	1	1	
john-doe	01	male	18	1	4	33	0,25787816699994437	None	8,893146714292337	3,8793216673761326	14:44:08.322955	10/01/2023	Random	0,7022295000006125	0	1	1	
john-doe	01	male	18	1	4	34	0,25810229200033064	None	8,893146714292337	3,8793216673761326	14:44:09.290581	10/01/2023	Random	0,702054583998688	0	3	3	
john-doe	01	male	18	1	4	35	0,2570226250009	None	8,893146714292337	3,8793216673761326	14:44:10.280689	10/01/2023	Random	0,72568770900034	1	4	2	
john-doe	01	male	18	1	4	35	0,2570226250009	None	8,893146714292337	3,8793216673761326	14:44:10.617316	10/01/2023	Random	1,062282458999107	0	4	4	
john-doe	01	male	18	1	4	36	0,25750137500108394	None	8,893146714292337	3,8793216673761326	14:44:11.495009	10/01/2023	Random	0,6121668340001634	1	1	3	
john-doe	01	male	18	1	4	36	0,25750137500108394	None	8,893146714292337	3,8793216673761326	14:44:11.967386	10/01/2023	Random	1,0846167090003291	1	1	2	
john-doe	01	male	18	1	4	36	0,25750137500108394	None	8,893146714292337	3,8793216673761326	14:44:12.327943	10/01/2023	Random	1,4451895000001969	0	1	1	
john-doe	01	male	18	1	4	37	0,2575479999995878	None	8,893146714292337	3,8793216673761326	14:44:13.339558	10/01/2023	Random	0,746866792000219	0	4	4	
john-doe	01	male	18	1	4	38	0,2576213339998503	None	8,893146714292337	3,8793216673761326	14:44:14.308054	10/01/2023	Random	0,70362945800116	0	1	1	
john-doe	01	male	18	1	4	39	0,2573439999996481	None	8,893146714292337	3,8793216673761326	14:44:15.118170	10/01/2023	Random	0,5447897079993709	0	3	3	
john-doe	01	male	18	1	4	40	0,25725237500046205	None	8,893146714292337	3,8793216673761326	14:44:15.973225	10/01/2023	No transition	0,587053167000704	0	2	2	userquit
john-doe	01	male	18	1	5	1	0,0	None	8,051684521009168	3,08874042207809	14:45:39.448587	10/01/2023	Random	0,6390434579989233	0	2	2	
john-doe	01	male	18	1	5	2	0,2578197499988164	None	8,051684521009168	3,08874042207809	14:45:40.258339	10/01/2023	Random	0,5441236249989743	0	4	4	
john-doe	01	male	18	1	5	3	0,2583531670006778	None	8,051684521009168	3,08874042207809	14:45:41.001318	10/01/2023	Random	0,471149291999609	0	4	4	
john-doe	01	male	18	1	5	4	0,25755087499965157	None	8,051684521009168	3,08874042207809	14:45:41.822365	10/01/2023	Random	0,5556186670000898	0	3	3	
john-doe	01	male	18	1	5	5	0,2576915409990761	None	8,051684521009168	3,08874042207809	14:45:42.486136	10/01/2023	Random	0,3986537090004276	0	2	2	
john-doe	01	male	18	1	5	6	0,257856250000259	None	8,051684521009168	3,08874042207809	14:45:43.273023	10/01/2023	Random	0,5219104170009814	0	2	2	
john-doe	01	male	18	1	5	7	0,2576697909989889	None	8,051684521009168	3,08874042207809	14:45:44.014375	10/01/2023	Random	0,47596587499901943	0	2	2	
john-doe	01	male	18	1	5	8	0,25758766699982516	None	8,051684521009168	3,08874042207809	14:45:44.826253	10/01/2023	Random	0,5469429159984429	0	4	4	
john-doe	01	male	18	1	5	9	0,2577722919995722	None	8,051684521009168	3,08874042207809	14:45:45.522817	10/01/2023	Random	0,42738912500135484	1	1	3	
john-doe	01	male	18	1	5	9	0,2577722919995722	None	8,051684521009168	3,08874042207809	14:45:45.770706	10/01/2023	Random	0,6753177500013408	0	1	1	
john-doe	01	male	18	1	5	10	0,2575784999989992	None	8,051684521009168	3,08874042207809	14:45:46.806591	10/01/2023	Random	0,7703646249992744	0	4	4	
john-doe	01	male	18	1	5	11	0,25798424999993586	None	8,051684521009168	3,08874042207809	14:45:47.526473	10/01/2023	Random	0,45432304099995235	1	1	3	
john-doe	01	male	18	1	5	11	0,25798424999993586	None	8,051684521009168	3,08874042207809	14:45:47.862992	10/01/2023	Random	0,7908567499998753	0	1	1	
john-doe	01	male	18	1	5	12	0,2576380840000638	None	8,051684521009168	3,08874042207809	14:45:48.966255	10/01/2023	Random	0,8381985420001001	0	4	4	
john-doe	01	male	18	1	5	13	0,25816583300002094	None	8,051684521009168	3,08874042207809	14:45:49.888071	10/01/2023	Random	0,6556815000003553	0	1	1	
john-doe	01	male	18	1	5	14	0,25737483400007477	None	8,051684521009168	3,08874042207809	14:45:50.675475	10/01/2023	Random	0,5222200420012086	0	3	3	
john-doe	01	male	18	1	5	15	0,2573635409989947	None	8,051684521009168	3,08874042207809	14:45:51.575715	10/01/2023	Random	0,6358747920003225	0	1	1	
john-doe	01	male	18	1	5	16	0,2575107909997314	None	8,051684521009168	3,08874042207809	14:45:52.317720	10/01/2023	Random	0,4772048750000977	1	3	1	
john-doe	01	male	18	1	5	16	0,2575107909997314	None	8,051684521009168	3,08874042207809	14:45:52.610868	10/01/2023	Random	0,7704927920003684	1	3	2	
john-doe	01	male	18	1	5	16	0,2575107909997314	None	8,051684521009168	3,08874042207809	14:45:52.993137	10/01/2023	Random	1,1527181670007849	0	3	3	
john-doe	01	male	18	1	5	17	0,25757345800047915	None	8,051684521009168	3,08874042207809	14:45:53.961210	10/01/2023	Random	0,7035254999991594	1	4	3	
john-doe	01	male	18	1	5	17	0,25757345800047915	None	8,051684521009168	3,08874042207809	14:45:54.366063	10/01/2023	Random	1,1083910419984022	1	4	1	
john-doe	01	male	18	1	5	17	0,25757345800047915	None	8,051684521009168	3,08874042207809	14:45:54.658281	10/01/2023	Random	1,40055429199856	0	4	4	
john-doe	01	male	18	1	5	18	0,25752270799966936	None	8,051684521009168	3,08874042207809	14:45:55.446378	10/01/2023	Random	0,5229463750001742	0	1	1	
john-doe	01	male	18	1	5	19	0,2580159579993051	None	8,051684521009168	3,08874042207809	14:45:56.256264	10/01/2023	Random	0,5444906249995256	0	4	4	
john-doe	01	male	18	1	5	20	0,25746970900036104	None	8,051684521009168	3,08874042207809	14:45:57.111716	10/01/2023	No transition	0,5905386249996809	0	1	1	userquit
john-doe	01	male	18	1	5	21	0,0	None	8,428082277303384	2,442886627826332	14:50:29.922961	10/01/2023	Random	0,727728334000858	1	1	2	
john-doe	01	male	18	1	5	21	0,0	None	8,428082277303384	2,442886627826332	14:50:29.935098	10/01/2023	Random	0,7400232090003556	0	1	1	
john-doe	01	male	18	1	5	22	0,2581141669998033	None	8,428082277303384	2,442886627826332	14:50:30.937266	10/01/2023	Random	0,7324559999997291	0	2	2	
john-doe	01	male	18	1	5	23	0,2583373749985185	None	8,428082277303384	2,442886627826332	14:50:31.815123	10/01/2023	Random	0,6122050829999353	0	1	1	
john-doe	01	male	18	1	5	24	0,2577246250002645	None	8,428082277303384	2,442886627826332	14:50:32.780806	10/01/2023	Random	0,6993547910005873	0	3	3	
john-doe	01	male	18	1	5	25	0,25748037499943166	None	8,428082277303384	2,442886627826332	14:50:33.567036	10/01/2023	Random	0,520305374999225	0	2	2	
john-doe	01	male	18	1	5	26	0,25758658300037496	None	8,428082277303384	2,442886627826332	14:50:34.356335	10/01/2023	Random	0,5246250000000146	1	3	1	
john-doe	01	male	18	1	5	26	0,25758658300037496	None	8,428082277303384	2,442886627826332	14:50:34.739687	10/01/2023	Random	0,9080483750003623	0	3	3	
john-doe	01	male	18	1	5	27	0,25754804099960893	None	8,428082277303384	2,442886627826332	14:50:35.504930	10/01/2023	Random	0,5005294590009726	0	3	3	
john-doe	01	male	18	1	5	28	0,25790266699914355	None	8,428082277303384	2,442886627826332	14:50:36.292668	10/01/2023	Random	0,5221079170005396	0	1	1	
john-doe	01	male	18	1	5	29	0,2577063749995432	None	8,428082277303384	2,442886627826332	14:50:36.944579	10/01/2023	Random	0,3803542909990938	0	1	1	
john-doe	01	male	18	1	5	30	0,25756133400136605	None	8,428082277303384	2,442886627826332	14:50:37.732712	10/01/2023	Random	0,5179270839998935	1	3	2	
john-doe	01	male	18	1	5	30	0,25756133400136605	None	8,428082277303384	2,442886627826332	14:50:38.078627	10/01/2023	Random	0,8639062499987631	0	3	3	
john-doe	01	male	18	1	5	31	0,25776358300026914	None	8,428082277303384	2,442886627826332	14:50:38.790017	10/01/2023	Random	0,44242387499980396	1	4	2	
john-doe	01	male	18	1	5	31	0,25776358300026914	None	8,428082277303384	2,442886627826332	14:50:39.014416	10/01/2023	Random	0,6668525830009457	0	4	4	
john-doe	01	male	18	1	5	32	0,2576162090008438	None	8,428082277303384	2,442886627826332	14:50:39.802158	10/01/2023	Random	0,5214700830001675	0	3	3	
john-doe	01	male	18	1	5	33	0,2574610419997043	None	8,428082277303384	2,442886627826332	14:50:40.545081	10/01/2023	Random	0,4781474999999773	0	2	2	
john-doe	01	male	18	1	5	34	0,25814679200084356	None	8,428082277303384	2,442886627826332	14:50:41.197789	10/01/2023	Random	0,3846366660000058	0	1	1	
john-doe	01	male	18	1	5	35	0,2576334580007824	None	8,428082277303384	2,442886627826332	14:50:42.165219	10/01/2023	Random	0,7003278329993918	0	4	4	
john-doe	01	male	18	1	5	36	0,25759691600069345	None	8,428082277303384	2,442886627826332	14:50:42.929396	10/01/2023	Random	0,49925316700137046	0	4	4	
john-doe	01	male	18	1	5	37	0,2582038750006177	None	8,428082277303384	2,442886627826332	14:50:43.515323	10/01/2023	Random	0,31766891699953703	0	4	4	
john-doe	01	male	18	1	5	38	0,25752537500011385	None	8,428082277303384	2,442886627826332	14:50:44.302294	10/01/2023	Random	0,5222237920006592	0	3	3	
john-doe	01	male	18	1	5	39	0,2579071660002228	None	8,428082277303384	2,442886627826332	14:50:45.067727	10/01/2023	Random	0,5003291670000181	0	3	3	
john-doe	01	male	18	1	5	40	0,25733566700000665	None	8,428082277303384	2,442886627826332	14:50:46.057244	10/01/2023	No transition	0,7250947499996983	0	4	4	userquit
john-doe	01	male	18	1	6	1	0,0	None	8,778366949581669	3,2276235393326904	14:53:15.369188	10/01/2023	Random	0,5657524170001125	0	4	4	
john-doe	01	male	18	1	6	2	0,263753541999904	None	8,778366949581669	3,2276235393326904	14:53:16.043737	10/01/2023	Random	0,39883616599945526	0	4	4	
john-doe	01	male	18	1	6	3	0,2632011669993517	None	8,778366949581669	3,2276235393326904	14:53:16.987815	10/01/2023	Random	0,6686906659997476	0	2	2	
john-doe	01	male	18	1	6	4	0,2633930000010878	None	8,778366949581669	3,2276235393326904	14:53:18.620130	10/01/2023	Random	1,3567236669987324	0	1	1	
john-doe	01	male	18	1	6	5	0,263290707998749	None	8,778366949581669	3,2276235393326904	14:53:19.486074	10/01/2023	Random	0,5853954169997451	0	4	4	
john-doe	01	male	18	1	6	6	0,2648579169999721	None	8,778366949581669	3,2276235393326904	14:53:20.296625	10/01/2023	Random	0,5337114579997433	1	1	4	
john-doe	01	male	18	1	6	6	0,2648579169999721	None	8,778366949581669	3,2276235393326904	14:53:20.610293	10/01/2023	Random	0,8472657080001227	0	1	1	
john-doe	01	male	18	1	6	7	0,2630586659997789	None	8,778366949581669	3,2276235393326904	14:53:21.578639	10/01/2023	Random	0,6929616249999526	0	2	2	
john-doe	01	male	18	1	6	8	0,2630273329996271	None	8,778366949581669	3,2276235393326904	14:53:22.275958	10/01/2023	Random	0,4221008750009787	0	2	2	
john-doe	01	male	18	1	6	9	0,2632760420001432	None	8,778366949581669	3,2276235393326904	14:53:23.131249	10/01/2023	Random	0,5796204580001358	0	1	1	
john-doe	01	male	18	1	6	10	0,26369720799993956	None	8,778366949581669	3,2276235393326904	14:53:23.896271	10/01/2023	Random	0,48674516700157255	0	1	1	
john-doe	01	male	18	1	6	11	0,26304412500030594	None	8,778366949581669	3,2276235393326904	14:53:24.526184	10/01/2023	Random	0,35456429199984996	0	1	1	
john-doe	01	male	18	1	6	12	0,263728625001022	None	8,778366949581669	3,2276235393326904	14:53:25.558352	10/01/2023	Random	0,7563883340008033	0	2	2	
john-doe	01	male	18	1	6	13	0,26231991600070614	None	8,778366949581669	3,2276235393326904	14:53:26.302171	10/01/2023	Random	0,46901912499924947	0	2	2	
john-doe	01	male	18	1	6	14	0,2633910839995224	None	8,778366949581669	3,2276235393326904	14:53:27.158718	10/01/2023	Random	0,5766175829994609	0	1	1	
john-doe	01	male	18	1	6	15	0,2633116670003801	None	8,778366949581669	3,2276235393326904	14:53:28.036330	10/01/2023	Random	0,6023081250004907	0	4	4	
john-doe	01	male	18	1	6	16	0,2631859590001113	None	8,778366949581669	3,2276235393326904	14:53:29.071642	10/01/2023	Random	0,7559925000005023	0	3	3	
john-doe	01	male	18	1	6	17	0,26304733300094085	None	8,778366949581669	3,2276235393326904	14:53:29.903936	10/01/2023	Random	0,5541067499998462	0	2	2	
john-doe	01	male	18	1	6	18	0,26295112499974493	None	8,778366949581669	3,2276235393326904	14:53:31.118881	10/01/2023	Random	0,9363965840002493	0	3	3	
john-doe	01	male	18	1	6	19	0,2646692499984056	None	8,778366949581669	3,2276235393326904	14:53:32.086538	10/01/2023	Random	0,6862569170007191	0	1	1	
john-doe	01	male	18	1	6	20	0,26335925000057614	None	8,778366949581669	3,2276235393326904	14:53:33.098546	10/01/2023	No transition	0,7323359170004551	0	2	2	userquit
john-doe	01	male	18	1	6	21	0,0	None	7,788336134451258	3,0445128195903965	15:00:42.266155	10/01/2023	Random	0,7967928329999268	0	3	3	
john-doe	01	male	18	1	6	22	0,2576472910004668	None	7,788336134451258	3,0445128195903965	15:00:43.143987	10/01/2023	Random	0,612244207999538	0	1	1	
john-doe	01	male	18	1	6	23	0,2575578340001812	None	7,788336134451258	3,0445128195903965	15:00:43.909105	10/01/2023	Random	0,5003654159991129	0	2	2	
john-doe	01	male	18	1	6	24	0,2579487920011161	None	7,788336134451258	3,0445128195903965	15:00:44.740995	10/01/2023	Random	0,5664289169999392	0	4	4	
john-doe	01	male	18	1	6	25	0,25758424999912677	None	7,788336134451258	3,0445128195903965	15:00:45.664442	10/01/2023	Random	0,65821245799998	0	1	1	
john-doe	01	male	18	1	6	26	0,2582377919989085	None	7,788336134451258	3,0445128195903965	15:00:46.743985	10/01/2023	Random	0,8139448330002779	0	2	2	
john-doe	01	male	18	1	6	27	0,25771945800079266	None	7,788336134451258	3,0445128195903965	15:00:47.753854	10/01/2023	Random	0,7453972910006996	0	4	4	
john-doe	01	male	18	1	6	28	0,2578426670006593	None	7,788336134451258	3,0445128195903965	15:00:48.521729	10/01/2023	Random	0,5026717920009105	0	4	4	
john-doe	01	male	18	1	6	29	0,2575399999986985	None	7,788336134451258	3,0445128195903965	15:00:50.230632	10/01/2023	Random	1,4440486250005051	1	2	1	
john-doe	01	male	18	1	6	29	0,2575399999986985	None	7,788336134451258	3,0445128195903965	15:00:50.680806	10/01/2023	Random	1,8942644170001586	0	2	2	
john-doe	01	male	18	1	6	30	0,2578741670004092	None	7,788336134451258	3,0445128195903965	15:00:51.829104	10/01/2023	Random	0,8828570000005129	0	3	3	
john-doe	01	male	18	1	6	31	0,25822375000097963	None	7,788336134451258	3,0445128195903965	15:00:52.931583	10/01/2023	Random	0,8312573330003943	0	2	2	
john-doe	01	male	18	1	6	32	0,2577530830003525	None	7,788336134451258	3,0445128195903965	15:00:54.393778	10/01/2023	Random	1,1973883749997185	0	1	1	
john-doe	01	male	18	1	6	33	0,257573125001727	None	7,788336134451258	3,0445128195903965	15:00:55.249068	10/01/2023	Random	0,5827957920009794	0	3	3	
john-doe	01	male	18	1	6	34	0,25726145899898256	None	7,788336134451258	3,0445128195903965	15:00:56.036533	10/01/2023	Random	0,5228459160007333	0	3	3	
john-doe	01	male	18	1	6	35	0,25778237499980605	None	7,788336134451258	3,0445128195903965	15:00:56.959199	10/01/2023	Random	0,6575470829993719	0	2	2	
john-doe	01	male	18	1	6	36	0,2576402499998949	None	7,788336134451258	3,0445128195903965	15:00:57.789212	10/01/2023	Random	0,5649711669993849	0	1	1	
john-doe	01	male	18	1	6	37	0,25765345899890235	None	7,788336134451258	3,0445128195903965	15:00:58.646155	10/01/2023	Random	0,5920948330003739	1	3	2	
john-doe	01	male	18	1	6	37	0,25765345899890235	None	7,788336134451258	3,0445128195903965	15:00:59.051267	10/01/2023	Random	0,9972845829997823	0	3	3	
john-doe	01	male	18	1	6	38	0,25757183299901953	None	7,788336134451258	3,0445128195903965	15:00:59.861554	10/01/2023	Random	0,5454971250001108	0	3	3	
john-doe	01	male	18	1	6	39	0,25719587500134367	None	7,788336134451258	3,0445128195903965	15:01:00.649261	10/01/2023	Random	0,5201275829986116	0	3	3	
john-doe	01	male	18	1	6	40	0,25780579099955503	None	7,788336134451258	3,0445128195903965	15:01:01.503432	10/01/2023	No transition	0,5887418330003129	0	1	1	userquit
john-doe	01	male	18	1	7	1	0,0	None	8,514136201682492	2,9248650807866223	15:02:44.644749	10/01/2023	Random	0,5499242499990942	1	3	4	
john-doe	01	male	18	1	7	1	0,0	None	8,514136201682492	2,9248650807866223	15:02:44.982081	10/01/2023	Random	0,8873810839995713	0	3	3	
john-doe	01	male	18	1	7	2	0,25752045899935183	None	8,514136201682492	2,9248650807866223	15:02:45.679979	10/01/2023	Random	0,4329068329989241	0	3	3	
john-doe	01	male	18	1	7	3	0,25794437500007916	None	8,514136201682492	2,9248650807866223	15:02:46.377106	10/01/2023	Random	0,4282262920005451	1	1	3	
john-doe	01	male	18	1	7	3	0,25794437500007916	None	8,514136201682492	2,9248650807866223	15:02:46.759193	10/01/2023	Random	0,810297084000922	0	1	1	
john-doe	01	male	18	1	7	4	0,2576299590000417	None	8,514136201682492	2,9248650807866223	15:02:47.637413	10/01/2023	Random	0,613250207999954	0	2	2	
john-doe	01	male	18	1	7	5	0,25778895800067403	None	8,514136201682492	2,9248650807866223	15:02:48.469694	10/01/2023	Random	0,5673509159987589	1	3	2	
john-doe	01	male	18	1	7	5	0,25778895800067403	None	8,514136201682492	2,9248650807866223	15:02:48.919079	10/01/2023	Random	1,0167576250005368	0	3	3	
john-doe	01	male	18	1	7	6	0,257619791000252	None	8,514136201682492	2,9248650807866223	15:02:49.841765	10/01/2023	Random	0,6576949160007644	1	4	3	
john-doe	01	male	18	1	7	6	0,257619791000252	None	8,514136201682492	2,9248650807866223	15:02:50.266380	10/01/2023	Random	1,0823455000008835	1	4	2	
john-doe	01	male	18	1	7	6	0,257619791000252	None	8,514136201682492	2,9248650807866223	15:02:50.629220	10/01/2023	Random	1,4452372910000122	0	4	4	
john-doe	01	male	18	1	7	7	0,25801008400048886	None	8,514136201682492	2,9248650807866223	15:02:51.664458	10/01/2023	Random	0,7675580409995746	0	2	2	
john-doe	01	male	18	1	7	8	0,2577968329987925	None	8,514136201682492	2,9248650807866223	15:02:52.472716	10/01/2023	Random	0,5426283329998114	0	3	3	
john-doe	01	male	18	1	7	9	0,2566302089999226	None	8,514136201682492	2,9248650807866223	15:02:53.191448	10/01/2023	Random	0,4548613330007356	0	2	2	
john-doe	01	male	18	1	7	10	0,25783258299998124	None	8,514136201682492	2,9248650807866223	15:02:54.003871	10/01/2023	Random	0,5473186250001163	0	4	4	
john-doe	01	male	18	1	7	11	0,2580413750001753	None	8,514136201682492	2,9248650807866223	15:02:55.039773	10/01/2023	Random	0,7700104169998667	0	3	3	
john-doe	01	male	18	1	7	12	0,2577010839995637	None	8,514136201682492	2,9248650807866223	15:02:55.781796	10/01/2023	Random	0,47653741700014507	0	3	3	
john-doe	01	male	18	1	7	13	0,25760395799989055	None	8,514136201682492	2,9248650807866223	15:02:56.814263	10/01/2023	Random	0,7653778750009224	0	4	4	
john-doe	01	male	18	1	7	14	0,25789179200000945	None	8,514136201682492	2,9248650807866223	15:02:57.694979	10/01/2023	Random	0,6154487080002582	0	2	2	
john-doe	01	male	18	1	7	15	0,2578757500014035	None	8,514136201682492	2,9248650807866223	15:02:58.616678	10/01/2023	Random	0,6565295410000545	0	1	1	
john-doe	01	male	18	1	7	16	0,25732016599977214	None	8,514136201682492	2,9248650807866223	15:02:59.471756	10/01/2023	Random	0,5853547499991691	1	3	2	
john-doe	01	male	18	1	7	16	0,25732016599977214	None	8,514136201682492	2,9248650807866223	15:02:59.899205	10/01/2023	Random	1,0127847080002539	0	3	3	
john-doe	01	male	18	1	7	17	0,25763295800061314	None	8,514136201682492	2,9248650807866223	15:03:00.664742	10/01/2023	Random	0,5006923750006536	0	3	3	
john-doe	01	male	18	1	7	18	0,2573227920001955	None	8,514136201682492	2,9248650807866223	15:03:01.317634	10/01/2023	Random	0,3875931250004214	0	3	3	
john-doe	01	male	18	1	7	19	0,2575933749994874	None	8,514136201682492	2,9248650807866223	15:03:01.922900	10/01/2023	Random	0,3341344159998698	0	3	3	
john-doe	01	male	18	1	7	20	0,25751750000017637	None	8,514136201682492	2,9248650807866223	15:03:02.891882	10/01/2023	No transition	0,7040340840012504	0	2	2	userquit
john-doe	01	male	18	1	7	21	0,0	None	7,99751189916002	2,9605413407583927	15:06:10.745816	10/01/2023	Random	0,9766870420007763	0	2	2	
john-doe	01	male	18	1	7	22	0,2583342919988354	None	7,99751189916002	2,9605413407583927	15:06:11.645412	10/01/2023	Random	0,632982125000126	0	4	4	
john-doe	01	male	18	1	7	23	0,2578690419995837	None	7,99751189916002	2,9605413407583927	15:06:12.343827	10/01/2023	Random	0,4331052500001533	0	4	4	
john-doe	01	male	18	1	7	24	0,2576684159994329	None	7,99751189916002	2,9605413407583927	15:06:13.040810	10/01/2023	Random	0,43124429199997394	0	3	3	
john-doe	01	male	18	1	7	25	0,2577148340005806	None	7,99751189916002	2,9605413407583927	15:06:13.738672	10/01/2023	Random	0,43259820899947954	0	3	3	
john-doe	01	male	18	1	7	26	0,25762358300016786	None	7,99751189916002	2,9605413407583927	15:06:14.413381	10/01/2023	Random	0,40715745799934666	0	3	3	
john-doe	01	male	18	1	7	27	0,25802583299991966	None	7,99751189916002	2,9605413407583927	15:06:15.065369	10/01/2023	Random	0,38684258299872454	0	3	3	
john-doe	01	male	18	1	7	28	0,25753141600034724	None	7,99751189916002	2,9605413407583927	15:06:15.739843	10/01/2023	Random	0,4096844589985267	1	1	2	
john-doe	01	male	18	1	7	28	0,25753141600034724	None	7,99751189916002	2,9605413407583927	15:06:16.010767	10/01/2023	Random	0,6806492089999665	0	1	1	
john-doe	01	male	18	1	7	29	0,2573855419996107	None	7,99751189916002	2,9605413407583927	15:06:16.753447	10/01/2023	Random	0,47771520800051803	0	2	2	
john-doe	01	male	18	1	7	30	0,25771262499984005	None	7,99751189916002	2,9605413407583927	15:06:17.383366	10/01/2023	Random	0,3647459159983555	0	2	2	
john-doe	01	male	18	1	7	31	0,2579624169993622	None	7,99751189916002	2,9605413407583927	15:06:18.125891	10/01/2023	Random	0,4773668750003708	1	1	3	
john-doe	01	male	18	1	7	31	0,2579624169993622	None	7,99751189916002	2,9605413407583927	15:06:18.441094	10/01/2023	Random	0,7926680840009794	1	1	4	
john-doe	01	male	18	1	7	31	0,2579624169993622	None	7,99751189916002	2,9605413407583927	15:06:18.845712	10/01/2023	Random	1,1971766250007931	0	1	1	
john-doe	01	male	18	1	7	32	0,25777791700056696	None	7,99751189916002	2,9605413407583927	15:06:19.543415	10/01/2023	Random	0,4327130000001489	0	1	1	
john-doe	01	male	18	1	7	33	0,2575427920000948	None	7,99751189916002	2,9605413407583927	15:06:20.195599	10/01/2023	Random	0,38734458399994764	0	1	1	
john-doe	01	male	18	1	7	34	0,25713345799886156	None	7,99751189916002	2,9605413407583927	15:06:21.028494	10/01/2023	Random	0,5683366659995954	1	3	2	
john-doe	01	male	18	1	7	34	0,25713345799886156	None	7,99751189916002	2,9605413407583927	15:06:21.454906	10/01/2023	Random	0,9949255829997128	0	3	3	
john-doe	01	male	18	1	7	35	0,25733458300055645	None	7,99751189916002	2,9605413407583927	15:06:22.333156	10/01/2023	Random	0,6139590830007364	0	4	4	
john-doe	01	male	18	1	7	36	0,2577528750007332	None	7,99751189916002	2,9605413407583927	15:06:23.029816	10/01/2023	Random	0,43165995799972734	0	4	4	
john-doe	01	male	18	1	7	37	0,2576000830013072	None	7,99751189916002	2,9605413407583927	15:06:23.728463	10/01/2023	Random	0,4333674579993385	0	4	4	
john-doe	01	male	18	1	7	38	0,25755362499876355	None	7,99751189916002	2,9605413407583927	15:06:24.470252	10/01/2023	Random	0,476487541998722	1	2	3	
john-doe	01	male	18	1	7	38	0,25755362499876355	None	7,99751189916002	2,9605413407583927	15:06:24.920792	10/01/2023	Random	0,9270695839986729	0	2	2	
john-doe	01	male	18	1	7	39	0,2575657500001398	None	7,99751189916002	2,9605413407583927	15:06:25.640962	10/01/2023	Random	0,4552034589996765	0	2	2	
john-doe	01	male	18	1	7	40	0,2586257499988278	None	7,99751189916002	2,9605413407583927	15:06:26.248614	10/01/2023	No transition	0,34070199999951	1	3	2	
john-doe	01	male	18	1	7	40	0,2586257499988278	None	7,99751189916002	2,9605413407583927	15:06:26.562603	10/01/2023	No transition	0,6547996669996792	0	3	3	userquit
john-doe	01	male	18	1	8	1	0,0	None	8,182638310933092	3,5359939838525527	15:11:49.035878	10/01/2023	Random	0,7746952500001498	0	3	3	
john-doe	01	male	18	1	8	2	0,25773716700132354	None	8,182638310933092	3,5359939838525527	15:11:49.935542	10/01/2023	Random	0,6342218330009928	1	4	2	
john-doe	01	male	18	1	8	2	0,25773716700132354	None	8,182638310933092	3,5359939838525527	15:11:50.292630	10/01/2023	Random	0,9913935410004342	0	4	4	
john-doe	01	male	18	1	8	3	0,25814029200046207	None	8,182638310933092	3,5359939838525527	15:11:51.217738	10/01/2023	Random	0,6535192499995901	1	2	3	
john-doe	01	male	18	1	8	3	0,25814029200046207	None	8,182638310933092	3,5359939838525527	15:11:51.668243	10/01/2023	Random	1,1040815840005962	0	2	2	
john-doe	01	male	18	1	8	4	0,2577169589985715	None	8,182638310933092	3,5359939838525527	15:11:52.589092	10/01/2023	Random	0,655322292001074	0	3	3	
john-doe	01	male	18	1	8	5	0,25750670800152875	None	8,182638310933092	3,5359939838525527	15:11:56.887680	10/01/2023	Random	4,033304624999801	0	3	3	
john-doe	01	male	18	1	8	6	0,2577298750002228	None	8,182638310933092	3,5359939838525527	15:11:57.720552	10/01/2023	Random	0,5654061250006635	0	1	1	
john-doe	01	male	18	1	8	7	0,25754179200157523	None	8,182638310933092	3,5359939838525527	15:11:58.800007	10/01/2023	Random	0,8142174999993586	1	2	3	
john-doe	01	male	18	1	8	7	0,25754179200157523	None	8,182638310933092	3,5359939838525527	15:11:59.385474	10/01/2023	Random	1,3998180409998895	0	2	2	
john-doe	01	male	18	1	8	8	0,2568129159990349	None	8,182638310933092	3,5359939838525527	15:12:00.577475	10/01/2023	Random	0,9274935829998867	0	4	4	
john-doe	01	male	18	1	8	9	0,2576115409992781	None	8,182638310933092	3,5359939838525527	15:12:04.987858	10/01/2023	Random	4,144787916000496	0	4	4	
john-doe	01	male	18	1	8	10	0,25784708299943304	None	8,182638310933092	3,5359939838525527	15:12:05.865456	10/01/2023	Random	0,611055542000031	0	1	1	
john-doe	01	male	18	1	8	11	0,25805870899966976	None	8,182638310933092	3,5359939838525527	15:12:10.609807	10/01/2023	Random	4,477875917000347	0	2	2	
john-doe	01	male	18	1	8	12	0,25771987500047544	None	8,182638310933092	3,5359939838525527	15:12:11.603128	10/01/2023	Random	0,7266873749995284	0	3	3	
john-doe	01	male	18	1	8	13	0,25772658300047624	None	8,182638310933092	3,5359939838525527	15:12:12.524814	10/01/2023	Random	0,6506447920000937	0	2	2	
john-doe	01	male	18	1	8	14	0,25790820800102665	None	8,182638310933092	3,5359939838525527	15:12:13.244745	10/01/2023	Random	0,45406904199990095	0	2	2	
john-doe	01	male	18	1	8	15	0,2590659580000647	None	8,182638310933092	3,5359939838525527	15:12:14.032906	10/01/2023	Random	0,5218614160003199	1	3	4	
john-doe	01	male	18	1	8	15	0,2590659580000647	None	8,182638310933092	3,5359939838525527	15:12:14.078230	10/01/2023	Random	0,5673897079996095	0	3	3	
john-doe	01	male	18	1	8	16	0,25758549999954994	None	8,182638310933092	3,5359939838525527	15:12:14.753249	10/01/2023	Random	0,4108257080006297	0	3	3	
john-doe	01	male	18	1	8	17	0,2573977089996333	None	8,182638310933092	3,5359939838525527	15:12:15.383397	10/01/2023	Random	0,36117354099951626	0	3	3	
john-doe	01	male	18	1	8	18	0,25743024999974295	None	8,182638310933092	3,5359939838525527	15:12:16.058357	10/01/2023	Random	0,41052283399949374	0	3	3	
john-doe	01	male	18	1	8	19	0,2576696249998349	None	8,182638310933092	3,5359939838525527	15:12:16.755426	10/01/2023	Random	0,431499915999666	0	3	3	
john-doe	01	male	18	1	8	20	0,25846870799978205	None	8,182638310933092	3,5359939838525527	15:12:17.520629	10/01/2023	No transition	0,4940128750004078	0	2	2	userquit
john-doe	01	male	18	1	8	21	0,0	121,57500418072722	8,298240546223917	2,0451232842351823	15:14:05.903091	10/01/2023	Random	0,860154624999268	1	4	2	
john-doe	01	male	18	1	8	21	0,0	121,57500418072722	8,298240546223917	2,0451232842351823	15:14:06.307034	10/01/2023	Random	1,2641780419999122	1	4	3	
john-doe	01	male	18	1	8	21	0,0	121,57500418072722	8,298240546223917	2,0451232842351823	15:14:06.733931	10/01/2023	Random	1,6912137499984965	1	4	2	
john-doe	01	male	18	1	8	21	0,0	121,57500418072722	8,298240546223917	2,0451232842351823	15:14:07.184356	10/01/2023	Random	2,141620417000013	0	4	4	
john-doe	01	male	18	1	8	22	0,24926595800025098	121,57500418072722	8,298240546223917	2,0451232842351823	15:14:08.106802	10/01/2023	Random	0,666129124998406	0	2	2	
john-doe	01	male	18	1	8	23	0,24955579100060277	121,57500418072722	8,298240546223917	2,0451232842351823	15:14:09.029345	10/01/2023	Random	0,6646379160010838	0	4	4	
john-doe	01	male	18	1	8	24	0,24898929200026032	121,57500418072722	8,298240546223917	2,0451232842351823	15:14:09.885301	10/01/2023	Random	0,5999785420008266	1	2	4	
john-doe	01	male	18	1	8	24	0,24898929200026032	121,57500418072722	8,298240546223917	2,0451232842351823	15:14:10.267591	10/01/2023	Random	0,982128208001086	1	2	3	
john-doe	01	male	18	1	8	24	0,24898929200026032	121,57500418072722	8,298240546223917	2,0451232842351823	15:14:10.784084	10/01/2023	Random	1,4988186669997958	0	2	2	
john-doe	01	male	18	1	8	25	0,2491310830009752	121,57500418072722	8,298240546223917	2,0451232842351823	15:14:11.527424	10/01/2023	Random	0,48693125000136206	0	2	2	
john-doe	01	male	18	1	8	26	0,24918958399939584	121,57500418072722	8,298240546223917	2,0451232842351823	15:14:12.157464	10/01/2023	Random	0,3739480000003823	0	2	2	
john-doe	01	male	18	1	8	27	0,24936708400127827	121,57500418072722	8,298240546223917	2,0451232842351823	15:14:12.990093	10/01/2023	Random	0,5762665410002228	1	3	2	
john-doe	01	male	18	1	8	27	0,24936708400127827	121,57500418072722	8,298240546223917	2,0451232842351823	15:14:13.552125	10/01/2023	Random	1,1384264159987652	0	3	3	
john-doe	01	male	18	1	8	28	0,24970329200004926	121,57500418072722	8,298240546223917	2,0451232842351823	15:14:14.184112	10/01/2023	Random	0,3753379589998076	0	3	3	
john-doe	01	male	18	1	8	29	0,2492781670007389	121,57500418072722	8,298240546223917	2,0451232842351823	15:14:15.127927	10/01/2023	Random	0,6875823339996714	0	1	1	
john-doe	01	male	18	1	8	30	0,24902904100054002	121,57500418072722	8,298240546223917	2,0451232842351823	15:14:15.982507	10/01/2023	Random	0,5980412080007227	0	3	3	
john-doe	01	male	18	1	8	31	0,24903729099969496	121,57500418072722	8,298240546223917	2,0451232842351823	15:14:16.839201	10/01/2023	Random	0,6006710420006129	0	4	4	
john-doe	01	male	18	1	8	32	0,24920099999872036	121,57500418072722	8,298240546223917	2,0451232842351823	15:14:17.601923	10/01/2023	Random	0,5066098749994126	0	4	4	
john-doe	01	male	18	1	8	33	0,2492481659992336	121,57500418072722	8,298240546223917	2,0451232842351823	15:14:18.481618	10/01/2023	Random	0,6234731250006007	0	3	3	
john-doe	01	male	18	1	8	34	0,24935499999992317	121,57500418072722	8,298240546223917	2,0451232842351823	15:14:19.176958	10/01/2023	Random	0,4377000419990509	0	3	3	
john-doe	01	male	18	1	8	35	0,24893633300052898	121,57500418072722	8,298240546223917	2,0451232842351823	15:14:20.664126	10/01/2023	Random	1,2307457080005406	0	2	2	
john-doe	01	male	18	1	8	36	0,2498477080007433	121,57500418072722	8,298240546223917	2,0451232842351823	15:14:21.427296	10/01/2023	Random	0,5028121659997851	0	3	3	
john-doe	01	male	18	1	8	37	0,2491369580002356	121,57500418072722	8,298240546223917	2,0451232842351823	15:14:22.260346	10/01/2023	Random	0,5766886669989617	1	2	3	
john-doe	01	male	18	1	8	37	0,2491369580002356	121,57500418072722	8,298240546223917	2,0451232842351823	15:14:22.574240	10/01/2023	Random	0,8907005829987611	1	2	4	
john-doe	01	male	18	1	8	37	0,2491369580002356	121,57500418072722	8,298240546223917	2,0451232842351823	15:14:22.957342	10/01/2023	Random	1,2737931669998943	1	2	3	
john-doe	01	male	18	1	8	37	0,2491369580002356	121,57500418072722	8,298240546223917	2,0451232842351823	15:14:23.338929	10/01/2023	Random	1,655449416999545	0	2	2	
john-doe	01	male	18	1	8	38	0,24914479099970777	121,57500418072722	8,298240546223917	2,0451232842351823	15:14:24.329984	10/01/2023	Random	0,7341052079991641	1	3	2	
john-doe	01	male	18	1	8	38	0,24914479099970777	121,57500418072722	8,298240546223917	2,0451232842351823	15:14:24.712038	10/01/2023	Random	1,1162420000000566	1	3	4	
john-doe	01	male	18	1	8	38	0,24914479099970777	121,57500418072722	8,298240546223917	2,0451232842351823	15:14:24.768563	10/01/2023	Random	1,1727565420005703	0	3	3	
john-doe	01	male	18	1	8	39	0,24923491600020498	121,57500418072722	8,298240546223917	2,0451232842351823	15:14:26.805109	10/01/2023	Random	1,7808267090003937	0	1	1	
john-doe	01	male	18	1	8	40	0,2491492079989257	121,57500418072722	8,298240546223917	2,0451232842351823	15:14:27.434911	10/01/2023	No transition	0,3723733330007235	0	1	1	userquit
john-doe	01	male	18	1	9	1	0,0	117,6024971613466	8,281990546225536	2,0667403869763294	15:20:47.349854	10/01/2023	Random	0,5793858750002983	0	1	1	
john-doe	01	male	18	1	9	2	0,2486904159995902	117,6024971613466	8,281990546225536	2,0667403869763294	15:20:48.162067	10/01/2023	Random	0,5561763749992679	1	3	2	
john-doe	01	male	18	1	9	2	0,2486904159995902	117,6024971613466	8,281990546225536	2,0667403869763294	15:20:48.497310	10/01/2023	Random	0,891433708000477	0	3	3	
john-doe	01	male	18	1	9	3	0,24919525000041176	117,6024971613466	8,281990546225536	2,0667403869763294	15:20:49.329679	10/01/2023	Random	0,5761609170003794	0	4	4	
john-doe	01	male	18	1	9	4	0,24870979200022703	117,6024971613466	8,281990546225536	2,0667403869763294	15:20:50.139763	10/01/2023	Random	0,5543331659991964	1	4	3	
john-doe	01	male	18	1	9	4	0,24870979200022703	117,6024971613466	8,281990546225536	2,0667403869763294	15:20:50.152349	10/01/2023	Random	0,566944207999768	0	4	4	
john-doe	01	male	18	1	9	5	0,2491143329989427	117,6024971613466	8,281990546225536	2,0667403869763294	15:20:50.951412	10/01/2023	Random	0,5390688329989644	1	3	2	
john-doe	01	male	18	1	9	5	0,2491143329989427	117,6024971613466	8,281990546225536	2,0667403869763294	15:20:51.355204	10/01/2023	Random	0,9428727909998997	0	3	3	userquit
john-doe	01	male	18	1	9	6	0,0	None	9,19714565545383	4,471955228982155	15:21:45.963374	10/01/2023	Random	0,526664000000892	0	1	1	
john-doe	01	male	18	1	9	7	0,2575614580000547	None	9,19714565545383	4,471955228982155	15:21:46.570032	10/01/2023	Random	0,34152287500000966	0	1	1	
john-doe	01	male	18	1	9	8	0,25740016700001433	None	9,19714565545383	4,471955228982155	15:21:47.380540	10/01/2023	Random	0,5461570410006971	1	2	3	
john-doe	01	male	18	1	9	8	0,25740016700001433	None	9,19714565545383	4,471955228982155	15:21:47.717169	10/01/2023	Random	0,8828849159999663	0	2	2	
john-doe	01	male	18	1	9	9	0,2575546669995674	None	9,19714565545383	4,471955228982155	15:21:48.437693	10/01/2023	Random	0,4553333330004534	1	1	3	
john-doe	01	male	18	1	9	9	0,2575546669995674	None	9,19714565545383	4,471955228982155	15:21:48.842446	10/01/2023	Random	0,8601639579992479	0	1	1	
john-doe	01	male	18	1	9	10	0,25819583300108206	None	9,19714565545383	4,471955228982155	15:21:49.765171	10/01/2023	Random	0,657029459000114	0	2	2	userquituserquit