subject_name	subject_number	subject_sex	subject_age	session	block	trial	RSI_time	frame_rate	frame_time	frame_sd	time	date	trial_type	RT	error	stimulus	response	quit_log	
john-doe	01	male	18	1	1	1	0,0	None	8,38500560504534	3,0229251316159442	15:19:25.491144	17/01/2023	training	0,9054835419992742	1	3	1	
john-doe	01	male	18	1	1	1	0,0	None	8,38500560504534	3,0229251316159442	15:19:26.683488	17/01/2023	training	2,0977426249992277	1	3	2	
john-doe	01	male	18	1	1	1	0,0	None	8,38500560504534	3,0229251316159442	15:19:27.133654	17/01/2023	training	2,547950708998542	0	3	3	
john-doe	01	male	18	1	1	2	0,126401249999617	None	8,38500560504534	3,0229251316159442	15:19:27.910461	17/01/2023	training	0,6458970839994436	0	2	2	
john-doe	01	male	18	1	1	3	0,1267877079990285	None	8,38500560504534	3,0229251316159442	15:19:29.001379	17/01/2023	training	0,9597385000015493	0	1	1	
john-doe	01	male	18	1	1	4	0,12671345900162123	None	8,38500560504534	3,0229251316159442	15:19:29.518632	17/01/2023	training	0,3857778329984285	0	1	1	
john-doe	01	male	18	1	1	5	0,127498709000065	None	8,38500560504534	3,0229251316159442	15:19:30.058913	17/01/2023	training	0,40857887500169454	0	1	1	
john-doe	01	male	18	1	1	6	5,756397540997568	None	8,38500560504534	3,0229251316159442	15:19:36.448619	17/01/2023	no transition	0,6290844590002962	0	1	1	
john-doe	01	male	18	1	1	7	0,1269161250020261	None	8,38500560504534	3,0229251316159442	15:19:37.056474	17/01/2023	random	0,47719995800071047	0	1	1	
john-doe	01	male	18	1	1	8	0,12635662500179023	None	8,38500560504534	3,0229251316159442	15:19:37.866742	17/01/2023	random	0,6797627079977246	1	2	3	
john-doe	01	male	18	1	1	8	0,12635662500179023	None	8,38500560504534	3,0229251316159442	15:19:38.383699	17/01/2023	random	1,1968218750007509	0	2	2	
john-doe	01	male	18	1	1	9	0,1271267500014801	None	8,38500560504534	3,0229251316159442	15:19:39.059282	17/01/2023	random	0,5438457499985816	0	2	2	
john-doe	01	male	18	1	1	10	0,12657774999752291	None	8,38500560504534	3,0229251316159442	15:19:39.893420	17/01/2023	random	0,7031556250003632	0	4	4	
john-doe	01	male	18	1	1	11	0,1261882090002473	None	8,38500560504534	3,0229251316159442	15:19:40.723052	17/01/2023	random	0,6989265839984	0	3	3	
john-doe	01	male	18	1	1	12	0,12645395800063852	None	8,38500560504534	3,0229251316159442	15:19:41.488922	17/01/2023	random	0,6353648339973006	0	2	2	
john-doe	01	male	18	1	1	13	0,12659316600183956	None	8,38500560504534	3,0229251316159442	15:19:42.140389	17/01/2023	random	0,5211285830009729	0	2	2	
john-doe	01	male	18	1	1	14	0,12648737500057905	None	8,38500560504534	3,0229251316159442	15:19:42.839004	17/01/2023	random	0,5678836250008317	0	1	1	
john-doe	01	male	18	1	1	15	0,1265184580006462	None	8,38500560504534	3,0229251316159442	15:19:43.380332	17/01/2023	random	0,4104800000022806	0	1	1	
john-doe	01	male	18	1	1	16	0,12639758399745915	None	8,38500560504534	3,0229251316159442	15:19:44.008604	17/01/2023	random	0,4977133330030483	1	2	3	
john-doe	01	male	18	1	1	16	0,12639758399745915	None	8,38500560504534	3,0229251316159442	15:19:44.413826	17/01/2023	random	0,9029523330027587	0	2	2	
john-doe	01	male	18	1	1	17	0,12642229199991561	None	8,38500560504534	3,0229251316159442	15:19:45.248392	17/01/2023	random	0,7012419159982528	0	3	3	
john-doe	01	male	18	1	1	18	0,1265694159992563	None	8,38500560504534	3,0229251316159442	15:19:45.966513	17/01/2023	random	0,5866628750009113	0	1	1	
john-doe	01	male	18	1	1	19	0,12651283300147043	None	8,38500560504534	3,0229251316159442	15:19:46.506874	17/01/2023	random	0,40961679199972423	0	1	1	
john-doe	01	male	18	1	1	20	0,126679166998656	None	8,38500560504534	3,0229251316159442	15:19:47.294246	17/01/2023	random	0,6568103749996226	0	4	4	
john-doe	01	male	18	1	1	21	0,1260397500009276	None	8,38500560504534	3,0229251316159442	15:19:47.990729	17/01/2023	random	0,5663825419978821	1	2	3	
john-doe	01	male	18	1	1	21	0,1260397500009276	None	8,38500560504534	3,0229251316159442	15:19:48.351266	17/01/2023	random	0,9270048329999554	0	2	2	
john-doe	01	male	18	1	1	22	0,1260404999993625	None	8,38500560504534	3,0229251316159442	15:19:49.183919	17/01/2023	random	0,7025245420009014	0	1	1	
john-doe	01	male	18	1	1	23	0,12623600000006263	None	8,38500560504534	3,0229251316159442	15:19:49.926267	17/01/2023	random	0,6115490839983977	0	2	2	
john-doe	01	male	18	1	1	24	0,1263775409970549	None	8,38500560504534	3,0229251316159442	15:19:50.691105	17/01/2023	random	0,6343825830008427	0	1	1	
john-doe	01	male	18	1	1	25	0,12653616600073292	None	8,38500560504534	3,0229251316159442	15:19:51.424495	17/01/2023	random	0,6028198749991134	0	4	4	
john-doe	01	male	18	1	1	26	0,12633624999944004	None	8,38500560504534	3,0229251316159442	15:19:52.086077	17/01/2023	random	0,5313013749982929	0	2	2	
john-doe	01	male	18	1	1	27	0,1262851249994128	None	8,38500560504534	3,0229251316159442	15:19:52.648737	17/01/2023	random	0,4324403339996934	0	1	1	
john-doe	01	male	18	1	1	28	0,1265592919990013	None	8,38500560504534	3,0229251316159442	15:19:53.525667	17/01/2023	random	0,7454231660012738	1	4	3	
john-doe	01	male	18	1	1	28	0,1265592919990013	None	8,38500560504534	3,0229251316159442	15:19:53.908334	17/01/2023	random	1,1282192079997913	1	4	2	
john-doe	01	male	18	1	1	28	0,1265592919990013	None	8,38500560504534	3,0229251316159442	15:19:54.268932	17/01/2023	random	1,4885920410015387	1	4	1	
john-doe	01	male	18	1	1	28	0,1265592919990013	None	8,38500560504534	3,0229251316159442	15:19:54.696887	17/01/2023	random	1,916607291001128	0	4	4	
john-doe	01	male	18	1	1	29	0,1262639169981412	None	8,38500560504534	3,0229251316159442	15:19:55.359895	17/01/2023	random	0,5324858329986455	1	2	3	
john-doe	01	male	18	1	1	29	0,1262639169981412	None	8,38500560504534	3,0229251316159442	15:19:55.753456	17/01/2023	random	0,9261021659986	0	2	2	
john-doe	01	male	18	1	1	30	0,12688566599899787	None	8,38500560504534	3,0229251316159442	15:19:56.361436	17/01/2023	random	0,4769823329988867	0	2	2	
john-doe	01	male	18	1	1	31	0,12589179200222134	None	8,38500560504534	3,0229251316159442	15:19:56.922837	17/01/2023	random	0,4314102499993169	1	3	1	
john-doe	01	male	18	1	1	31	0,12589179200222134	None	8,38500560504534	3,0229251316159442	15:19:57.441042	17/01/2023	random	0,9496360839984845	0	3	3	
john-doe	01	male	18	1	1	32	0,12644000000000233	None	8,38500560504534	3,0229251316159442	15:19:58.139170	17/01/2023	random	0,567921458001365	0	1	1	
john-doe	01	male	18	1	1	33	0,1266759579993959	None	8,38500560504534	3,0229251316159442	15:19:58.746401	17/01/2023	random	0,4762176250005723	0	1	1	
john-doe	01	male	18	1	1	34	0,12626174999968498	None	8,38500560504534	3,0229251316159442	15:19:59.443968	17/01/2023	random	0,5674089169988292	1	2	3	
john-doe	01	male	18	1	1	34	0,12626174999968498	None	8,38500560504534	3,0229251316159442	15:19:59.848705	17/01/2023	random	0,9722159589982766	0	2	2	
john-doe	01	male	18	1	1	35	0,12664554200091516	None	8,38500560504534	3,0229251316159442	15:20:00.602493	17/01/2023	random	0,6228535000009288	0	1	1	
john-doe	01	male	18	1	1	36	0,1264904999989085	None	8,38500560504534	3,0229251316159442	15:20:01.334848	17/01/2023	random	0,5990168750031444	1	4	3	
john-doe	01	male	18	1	1	36	0,1264904999989085	None	8,38500560504534	3,0229251316159442	15:20:01.761787	17/01/2023	random	1,026164291000896	0	4	4	
john-doe	01	male	18	1	1	37	0,12623216700012563	None	8,38500560504534	3,0229251316159442	15:20:02.526566	17/01/2023	random	0,6340956660023949	1	2	3	
john-doe	01	male	18	1	1	37	0,12623216700012563	None	8,38500560504534	3,0229251316159442	15:20:02.897224	17/01/2023	random	1,0049672910026857	0	2	2	
john-doe	01	male	18	1	1	38	0,1264905420030118	None	8,38500560504534	3,0229251316159442	15:20:03.629132	17/01/2023	random	0,6008417909979471	1	3	1	
john-doe	01	male	18	1	1	38	0,1264905420030118	None	8,38500560504534	3,0229251316159442	15:20:03.989041	17/01/2023	random	0,9609098749970144	1	3	2	
john-doe	01	male	18	1	1	38	0,1264905420030118	None	8,38500560504534	3,0229251316159442	15:20:04.349530	17/01/2023	random	1,3210571249983332	0	3	3	
john-doe	01	male	18	1	1	39	0,12599224999939906	None	8,38500560504534	3,0229251316159442	15:20:05.204079	17/01/2023	random	0,724279916001251	0	4	4	
john-doe	01	male	18	1	1	40	0,12648629199975403	None	8,38500560504534	3,0229251316159442	15:20:06.103759	17/01/2023	random	0,7676526660034142	0	1	1	
john-doe	01	male	18	1	1	41	0,12632333299916354	None	8,38500560504534	3,0229251316159442	15:20:07.026298	17/01/2023	random	0,7915981670012116	0	3	3	
john-doe	01	male	18	1	1	42	0,12655141699724481	None	8,38500560504534	3,0229251316159442	15:20:08.106675	17/01/2023	random	0,9496505839997553	0	1	1	
john-doe	01	male	18	1	1	43	0,12700004200087278	None	8,38500560504534	3,0229251316159442	15:20:08.916714	17/01/2023	random	0,6784387080006127	0	3	3	
john-doe	01	male	18	1	1	44	0,12629220799863106	None	8,38500560504534	3,0229251316159442	15:20:09.591357	17/01/2023	random	0,5439283329978934	0	3	3	
john-doe	01	male	18	1	1	45	0,12660391600002185	None	8,38500560504534	3,0229251316159442	15:20:10.380639	17/01/2023	random	0,6584472920003464	0	4	4	
john-doe	01	male	18	1	1	46	0,12648566699863295	None	8,38500560504534	3,0229251316159442	15:20:11.211413	17/01/2023	random	0,6993317089982156	0	3	3	
john-doe	01	male	18	1	1	47	0,12641149999763002	None	8,38500560504534	3,0229251316159442	15:20:11.908028	17/01/2023	random	0,5660323750016687	0	3	3	
john-doe	01	male	18	1	1	48	0,126292500001	None	8,38500560504534	3,0229251316159442	15:20:12.617431	17/01/2023	random	0,579017333999218	0	2	2	
john-doe	01	male	18	1	1	49	0,1272923329997866	None	8,38500560504534	3,0229251316159442	15:20:13.303766	17/01/2023	random	0,5551022500003455	0	1	1	
john-doe	01	male	18	1	1	50	0,1260833329979505	None	8,38500560504534	3,0229251316159442	15:20:14.384546	17/01/2023	random	0,950756750000437	0	4	4	
john-doe	01	male	18	1	1	51	0,1265686669976276	None	8,38500560504534	3,0229251316159442	15:20:15.148581	17/01/2023	no transition	0,6333390420004434	0	2	2	
john-doe	01	male	18	1	1	52	0,1264861670024402	None	8,38500560504534	3,0229251316159442	15:20:15.959311	17/01/2023	random	0,6794006249983795	1	4	1	
john-doe	01	male	18	1	1	52	0,1264861670024402	None	8,38500560504534	3,0229251316159442	15:20:16.386551	17/01/2023	random	1,1067901669994171	1	4	3	
john-doe	01	male	18	1	1	52	0,1264861670024402	None	8,38500560504534	3,0229251316159442	15:20:16.949473	17/01/2023	random	1,669644833997154	0	4	4	
john-doe	01	male	18	1	1	53	0,12623024999993504	None	8,38500560504534	3,0229251316159442	15:20:17.714384	17/01/2023	random	0,6344994159990165	0	2	2	
john-doe	01	male	18	1	1	54	0,12625604099957854	None	8,38500560504534	3,0229251316159442	15:20:18.547285	17/01/2023	random	0,7024601250013802	0	2	2	
john-doe	01	male	18	1	1	55	0,1264560839990736	None	8,38500560504534	3,0229251316159442	15:20:19.266634	17/01/2023	random	0,5886447499979113	0	1	1	
john-doe	01	male	18	1	1	56	0,126515042000392	None	8,38500560504534	3,0229251316159442	15:20:20.076610	17/01/2023	random	0,6793283749975672	0	4	4	
john-doe	01	male	18	1	1	57	0,1264289999999164	None	8,38500560504534	3,0229251316159442	15:20:20.897602	17/01/2023	random	0,6903867920009361	0	1	1	
john-doe	01	male	18	1	1	58	0,1264722919986525	None	8,38500560504534	3,0229251316159442	15:20:21.788538	17/01/2023	random	0,760218082999927	0	3	3	
john-doe	01	male	18	1	1	59	0,1264372919977177	None	8,38500560504534	3,0229251316159442	15:20:22.708888	17/01/2023	random	0,7894182500021998	1	1	2	
john-doe	01	male	18	1	1	59	0,1264372919977177	None	8,38500560504534	3,0229251316159442	15:20:23.181078	17/01/2023	random	1,261719666999852	1	1	4	
john-doe	01	male	18	1	1	59	0,1264372919977177	None	8,38500560504534	3,0229251316159442	15:20:23.698994	17/01/2023	random	1,7795481249995646	0	1	1	
john-doe	01	male	18	1	1	60	0,12648804100172129	None	8,38500560504534	3,0229251316159442	15:20:24.510584	17/01/2023	random	0,6808699579996755	1	4	2	
john-doe	01	male	18	1	1	60	0,12648804100172129	None	8,38500560504534	3,0229251316159442	15:20:24.913716	17/01/2023	random	1,0841627910012903	1	4	3	
john-doe	01	male	18	1	1	60	0,12648804100172129	None	8,38500560504534	3,0229251316159442	15:20:25.431512	17/01/2023	random	1,601890291000018	1	4	2	
john-doe	01	male	18	1	1	60	0,12648804100172129	None	8,38500560504534	3,0229251316159442	15:20:25.723543	17/01/2023	random	1,8939961659998517	0	4	4	
john-doe	01	male	18	1	1	61	0,1262910830009787	None	8,38500560504534	3,0229251316159442	15:20:26.489575	17/01/2023	random	0,6357060409973201	1	1	3	
john-doe	01	male	18	1	1	61	0,1262910830009787	None	8,38500560504534	3,0229251316159442	15:20:26.894020	17/01/2023	random	1,0403434580002795	1	1	2	
john-doe	01	male	18	1	1	61	0,1262910830009787	None	8,38500560504534	3,0229251316159442	15:20:27.456557	17/01/2023	random	1,6028582910003024	0	1	1	
john-doe	01	male	18	1	1	62	0,12657799999942654	None	8,38500560504534	3,0229251316159442	15:20:28.176462	17/01/2023	random	0,5894538749998901	1	2	3	
john-doe	01	male	18	1	1	62	0,12657799999942654	None	8,38500560504534	3,0229251316159442	15:20:28.638054	17/01/2023	random	1,0510959579987684	0	2	2	
john-doe	01	male	18	1	1	63	0,12651337499846704	None	8,38500560504534	3,0229251316159442	15:20:29.256686	17/01/2023	random	0,48826591599936364	0	2	2	
john-doe	01	male	18	1	1	64	0,12704958299946156	None	8,38500560504534	3,0229251316159442	15:20:30.224649	17/01/2023	random	0,8361416250008915	0	3	3	
john-doe	01	male	18	1	1	65	0,12656362499910756	None	8,38500560504534	3,0229251316159442	15:20:31.146658	17/01/2023	random	0,7911024169989105	1	4	1	
john-doe	01	male	18	1	1	65	0,12656362499910756	None	8,38500560504534	3,0229251316159442	15:20:31.911509	17/01/2023	random	1,5560092919986346	1	4	3	
john-doe	01	male	18	1	1	65	0,12656362499910756	None	8,38500560504534	3,0229251316159442	15:20:32.361226	17/01/2023	random	2,005737749997934	0	4	4	
john-doe	01	male	18	1	1	66	0,12622537499919417	None	8,38500560504534	3,0229251316159442	15:20:34.668901	17/01/2023	random	2,1766940409979725	0	3	3	
john-doe	01	male	18	1	1	67	0,1265869160015427	None	8,38500560504534	3,0229251316159442	15:20:35.860571	17/01/2023	random	1,0536864999994577	0	1	1	
john-doe	01	male	18	1	1	68	0,12714087499989546	None	8,38500560504534	3,0229251316159442	15:20:36.571195	17/01/2023	random	0,5785875000001397	1	4	2	
john-doe	01	male	18	1	1	68	0,12714087499989546	None	8,38500560504534	3,0229251316159442	15:20:36.973895	17/01/2023	random	0,9813768749991141	1	4	3	
john-doe	01	male	18	1	1	68	0,12714087499989546	None	8,38500560504534	3,0229251316159442	15:20:37.333790	17/01/2023	random	1,341330499999458	0	4	4	
john-doe	01	male	18	1	1	69	0,1259942079996108	None	8,38500560504534	3,0229251316159442	15:20:37.964206	17/01/2023	random	0,5004387909975776	0	4	4	
john-doe	01	male	18	1	1	70	0,12647091699909652	None	8,38500560504534	3,0229251316159442	15:20:38.459087	17/01/2023	random	0,36445166699922993	0	4	4	
john-doe	01	male	18	1	1	71	0,12653687499914668	None	8,38500560504534	3,0229251316159442	15:20:39.065481	17/01/2023	random	0,47627175000161515	0	1	1	
john-doe	01	male	18	1	1	72	0,12625491699873237	None	8,38500560504534	3,0229251316159442	15:20:39.606706	17/01/2023	random	0,4109388750002836	0	1	1	
john-doe	01	male	18	1	1	73	0,12666512500072713	None	8,38500560504534	3,0229251316159442	15:20:40.304299	17/01/2023	random	0,5668089579994557	0	4	4	
john-doe	01	male	18	1	1	74	0,12588412500190316	None	8,38500560504534	3,0229251316159442	15:20:40.821698	17/01/2023	random	0,3874695830018027	0	4	4	
john-doe	01	male	18	1	1	75	0,126530499997898	None	8,38500560504534	3,0229251316159442	15:20:41.429609	17/01/2023	random	0,47732887500023935	0	1	1	
john-doe	01	male	18	1	1	76	0,12785470800008625	None	8,38500560504534	3,0229251316159442	15:20:42.081646	17/01/2023	random	0,5206961250005406	0	3	3	
john-doe	01	male	18	1	1	77	0,12642837499879533	None	8,38500560504534	3,0229251316159442	15:20:42.668935	17/01/2023	random	0,45692754199990304	0	3	3	
john-doe	01	male	18	1	1	78	0,12661162500080536	None	8,38500560504534	3,0229251316159442	15:20:43.319825	17/01/2023	random	0,5196837090006738	0	1	1	
john-doe	01	male	18	1	1	79	0,12595766699814703	None	8,38500560504534	3,0229251316159442	15:20:43.938060	17/01/2023	random	0,48777691700161085	1	4	3	
john-doe	01	male	18	1	1	79	0,12595766699814703	None	8,38500560504534	3,0229251316159442	15:20:44.285341	17/01/2023	random	0,8351587500001187	0	4	4	
john-doe	01	male	18	1	1	80	0,12691445800010115	None	8,38500560504534	3,0229251316159442	15:20:45.163817	17/01/2023	random	0,7475736669985054	0	3	3	
john-doe	01	male	18	1	1	81	0,12643041699993773	None	8,38500560504534	3,0229251316159442	15:20:46.199580	17/01/2023	random	0,9049893339979462	1	4	2	
john-doe	01	male	18	1	1	81	0,12643041699993773	None	8,38500560504534	3,0229251316159442	15:20:46.559912	17/01/2023	random	1,265478583998629	0	4	4	
john-doe	01	male	18	1	1	82	0,12639533299807226	None	8,38500560504534	3,0229251316159442	15:20:47.301920	17/01/2023	random	0,6112176250026096	0	1	1	
john-doe	01	male	18	1	1	83	0,12597087500034831	None	8,38500560504534	3,0229251316159442	15:20:48.134346	17/01/2023	random	0,7017981249991863	1	3	2	
john-doe	01	male	18	1	1	83	0,12597087500034831	None	8,38500560504534	3,0229251316159442	15:20:48.516184	17/01/2023	random	1,0836969999982102	0	3	3	
john-doe	01	male	18	1	1	84	0,12635799999770825	None	8,38500560504534	3,0229251316159442	15:20:49.349001	17/01/2023	random	0,7023699169985775	0	2	2	
john-doe	01	male	18	1	1	85	0,1259044170001289	None	8,38500560504534	3,0229251316159442	15:20:50.432473	17/01/2023	random	0,953316041999642	0	4	4	
john-doe	01	male	18	1	1	86	0,1275872910009639	None	8,38500560504534	3,0229251316159442	15:20:51.261672	17/01/2023	random	0,6979241250010091	1	2	4	
john-doe	01	male	18	1	1	86	0,1275872910009639	None	8,38500560504534	3,0229251316159442	15:20:51.756666	17/01/2023	random	1,1930319999992207	1	2	1	
john-doe	01	male	18	1	1	86	0,1275872910009639	None	8,38500560504534	3,0229251316159442	15:20:52.139155	17/01/2023	random	1,5756017910025548	0	2	2	
john-doe	01	male	18	1	1	87	0,12650612500146963	None	8,38500560504534	3,0229251316159442	15:20:52.836574	17/01/2023	random	0,566575708999153	1	1	4	
john-doe	01	male	18	1	1	87	0,12650612500146963	None	8,38500560504534	3,0229251316159442	15:20:53.264059	17/01/2023	random	0,9941395839996403	1	1	3	
john-doe	01	male	18	1	1	87	0,12650612500146963	None	8,38500560504534	3,0229251316159442	15:20:53.691489	17/01/2023	random	1,421606833999249	1	1	2	
john-doe	01	male	18	1	1	87	0,12650612500146963	None	8,38500560504534	3,0229251316159442	15:20:53.718296	17/01/2023	random	1,448420291999355	0	1	1	
john-doe	01	male	18	1	1	88	0,12655174999963492	None	8,38500560504534	3,0229251316159442	15:20:54.468057	17/01/2023	random	0,6196593749991735	1	3	1	
john-doe	01	male	18	1	1	88	0,12655174999963492	None	8,38500560504534	3,0229251316159442	15:20:54.997054	17/01/2023	random	1,148756875001709	0	3	3	
john-doe	01	male	18	1	1	89	0,12654091700096615	None	8,38500560504534	3,0229251316159442	15:20:55.783983	17/01/2023	random	0,6560930840023502	0	1	1	
john-doe	01	male	18	1	1	90	0,12645958300345228	None	8,38500560504534	3,0229251316159442	15:20:56.526884	17/01/2023	random	0,6121193330000096	0	4	4	
john-doe	01	male	18	1	1	91	0,0	None	8,38500560504534	3,0229251316159442	15:21:06.516492	17/01/2023	random	0,7193844159992295	0	2	2	
john-doe	01	male	18	1	1	92	0,12674049999986892	None	8,38500560504534	3,0229251316159442	15:21:06.853516	17/01/2023	random	0,20559837499968125	1	1	4	
john-doe	01	male	18	1	1	92	0,12674049999986892	None	8,38500560504534	3,0229251316159442	15:21:07.269934	17/01/2023	random	0,6221693749976112	1	1	3	
john-doe	01	male	18	1	1	92	0,12674049999986892	None	8,38500560504534	3,0229251316159442	15:21:07.640768	17/01/2023	random	0,9930528749973746	1	1	2	
john-doe	01	male	18	1	1	92	0,12674049999986892	None	8,38500560504534	3,0229251316159442	15:21:07.955682	17/01/2023	random	1,307809082998574	0	1	1	
john-doe	01	male	18	1	1	93	0,12653866699838545	None	8,38500560504534	3,0229251316159442	15:21:08.485510	17/01/2023	random	0,39926420800111373	0	1	1	
john-doe	01	male	18	1	1	94	0,12646629200025927	None	8,38500560504534	3,0229251316159442	15:21:09.182199	17/01/2023	random	0,5664508750014647	0	4	4	
john-doe	01	male	18	1	1	95	0,12657025000225985	None	8,38500560504534	3,0229251316159442	15:21:09.925351	17/01/2023	random	0,6123852499986242	0	1	1	
john-doe	01	male	18	1	1	96	0,12663358400095603	None	8,38500560504534	3,0229251316159442	15:21:10.622488	17/01/2023	no transition	0,5663098750010249	0	2	2	
john-doe	01	male	18	1	1	97	0,12637129200084019	None	8,38500560504534	3,0229251316159442	15:21:11.322120	17/01/2023	random	0,5684961670012854	0	1	1	
john-doe	01	male	18	1	1	98	0,1262955409983988	None	8,38500560504534	3,0229251316159442	15:21:11.893845	17/01/2023	random	0,44104125000012573	0	1	1	
john-doe	01	male	18	1	1	99	0,1271640410013788	None	8,38500560504534	3,0229251316159442	15:21:12.568915	17/01/2023	random	0,5436577920008858	0	4	4	
john-doe	01	male	18	1	1	100	0,12674495900137117	None	8,38500560504534	3,0229251316159442	15:21:13.321603	17/01/2023	random	0,6215364999989106	1	1	3	
john-doe	01	male	18	1	1	100	0,12674495900137117	None	8,38500560504534	3,0229251316159442	15:21:13.693621	17/01/2023	random	0,9937314999988303	1	1	2	
john-doe	01	male	18	1	1	100	0,12674495900137117	None	8,38500560504534	3,0229251316159442	15:21:14.031386	17/01/2023	random	1,3315626669973426	0	1	1	
john-doe	01	male	18	1	1	101	0,1265997089976736	None	8,38500560504534	3,0229251316159442	15:21:14.592811	17/01/2023	random	0,4307275000028312	0	1	1	
john-doe	01	male	18	1	1	102	0,12659491700105718	None	8,38500560504534	3,0229251316159442	15:21:15.314278	17/01/2023	random	0,5904643750000105	0	3	3	
john-doe	01	male	18	1	1	103	0,1260950830001093	None	8,38500560504534	3,0229251316159442	15:21:16.033929	17/01/2023	random	0,5891415000005509	0	2	2	
john-doe	01	male	18	1	1	104	0,12719429199933074	None	8,38500560504534	3,0229251316159442	15:21:17.000902	17/01/2023	random	0,8357945409989043	0	3	3	
john-doe	01	male	18	1	1	105	0,1266527080006199	None	8,38500560504534	3,0229251316159442	15:21:17.609350	17/01/2023	random	0,4773256250009581	0	2	2	
john-doe	01	male	18	1	1	106	0,12701145900064148	None	8,38500560504534	3,0229251316159442	15:21:18.486355	17/01/2023	random	0,745444457999838	0	3	3	
john-doe	01	male	18	1	1	107	0,1265117500006454	None	8,38500560504534	3,0229251316159442	15:21:19.160831	17/01/2023	random	0,543832041999849	0	4	4	
john-doe	01	male	18	1	1	108	0,12650366700108862	None	8,38500560504534	3,0229251316159442	15:21:19.859216	17/01/2023	random	0,5676699159994314	0	3	3	
john-doe	01	male	18	1	1	109	0,12657174999912968	None	8,38500560504534	3,0229251316159442	15:21:20.466872	17/01/2023	random	0,476331082998513	0	2	2	
john-doe	01	male	18	1	1	110	0,1263582920000772	None	8,38500560504534	3,0229251316159442	15:21:21.141442	17/01/2023	random	0,5446940830006497	0	3	3	
john-doe	01	male	18	1	1	111	0,12653204199887114	None	8,38500560504534	3,0229251316159442	15:21:21.816401	17/01/2023	random	0,5444518749973213	1	4	1	
john-doe	01	male	18	1	1	111	0,12653204199887114	None	8,38500560504534	3,0229251316159442	15:21:22.154633	17/01/2023	random	0,8827514169970527	0	4	4	
john-doe	01	male	18	1	1	112	0,1276046659986605	None	8,38500560504534	3,0229251316159442	15:21:22.828640	17/01/2023	random	0,5419885000010254	0	4	4	
john-doe	01	male	18	1	1	113	0,12688004099982209	None	8,38500560504534	3,0229251316159442	15:21:23.457787	17/01/2023	random	0,4978171670009033	0	1	1	
john-doe	01	male	18	1	1	114	0,1265574999997625	None	8,38500560504534	3,0229251316159442	15:21:24.066284	17/01/2023	random	0,4783125829999335	1	4	1	
john-doe	01	male	18	1	1	114	0,1265574999997625	None	8,38500560504534	3,0229251316159442	15:21:24.448639	17/01/2023	random	0,860795083000994	1	4	2	
john-doe	01	male	18	1	1	114	0,1265574999997625	None	8,38500560504534	3,0229251316159442	15:21:24.808461	17/01/2023	random	1,220589332999225	1	4	3	
john-doe	01	male	18	1	1	114	0,1265574999997625	None	8,38500560504534	3,0229251316159442	15:21:25.146999	17/01/2023	random	1,5592010420004954	1	4	3	
john-doe	01	male	18	1	1	114	0,1265574999997625	None	8,38500560504534	3,0229251316159442	15:21:25.158547	17/01/2023	random	1,5713138329992944	0	4	4	
john-doe	01	male	18	1	1	115	0,12665554200066254	None	8,38500560504534	3,0229251316159442	15:21:25.663448	17/01/2023	random	0,37109979100205237	1	1	4	
john-doe	01	male	18	1	1	115	0,12665554200066254	None	8,38500560504534	3,0229251316159442	15:21:26.024108	17/01/2023	random	0,731818000000203	1	1	3	
john-doe	01	male	18	1	1	115	0,12665554200066254	None	8,38500560504534	3,0229251316159442	15:21:26.405888	17/01/2023	random	1,1135590830017463	1	1	2	
john-doe	01	male	18	1	1	115	0,12665554200066254	None	8,38500560504534	3,0229251316159442	15:21:26.419036	17/01/2023	random	1,1267458330003137	0	1	1	
john-doe	01	male	18	1	1	116	0,1266577079986746	None	8,38500560504534	3,0229251316159442	15:21:26.879497	17/01/2023	random	0,3236894580004446	1	2	1	
john-doe	01	male	18	1	1	116	0,1266577079986746	None	8,38500560504534	3,0229251316159442	15:21:27.351511	17/01/2023	random	0,7958106249971024	1	2	4	
john-doe	01	male	18	1	1	116	0,1266577079986746	None	8,38500560504534	3,0229251316159442	15:21:27.756547	17/01/2023	random	1,2007928329985589	1	2	3	
john-doe	01	male	18	1	1	116	0,1266577079986746	None	8,38500560504534	3,0229251316159442	15:21:28.139162	17/01/2023	random	1,583473499998945	0	2	2	
john-doe	01	male	18	1	1	117	0,12638937500014435	None	8,38500560504534	3,0229251316159442	15:21:28.656011	17/01/2023	random	0,3862035419988388	1	3	2	
john-doe	01	male	18	1	1	117	0,12638937500014435	None	8,38500560504534	3,0229251316159442	15:21:29.061151	17/01/2023	random	0,7915097920013068	1	3	1	
john-doe	01	male	18	1	1	117	0,12638937500014435	None	8,38500560504534	3,0229251316159442	15:21:29.398956	17/01/2023	random	1,1292480000010983	1	3	4	
john-doe	01	male	18	1	1	117	0,12638937500014435	None	8,38500560504534	3,0229251316159442	15:21:29.870882	17/01/2023	random	1,601134959000774	0	3	3	
john-doe	01	male	18	1	1	118	0,12659379199976684	None	8,38500560504534	3,0229251316159442	15:21:30.670400	17/01/2023	random	0,6684376669982157	1	2	3	
john-doe	01	male	18	1	1	118	0,12659379199976684	None	8,38500560504534	3,0229251316159442	15:21:31.087650	17/01/2023	random	1,0858997920004185	0	2	2	
john-doe	01	male	18	1	1	119	0,1265483339993807	None	8,38500560504534	3,0229251316159442	15:21:31.851047	17/01/2023	random	0,6327869159977126	1	1	2	
john-doe	01	male	18	1	1	119	0,1265483339993807	None	8,38500560504534	3,0229251316159442	15:21:32.255883	17/01/2023	random	1,0377739159994235	0	1	1	
john-doe	01	male	18	1	1	120	0,12658812500012573	None	8,38500560504534	3,0229251316159442	15:21:32.426840	17/01/2023	random	0,039842500002123415	1	3	4	
john-doe	01	male	18	1	1	120	0,12658812500012573	None	8,38500560504534	3,0229251316159442	15:21:33.358572	17/01/2023	random	0,9716856670020206	0	3	3	
john-doe	01	male	18	1	1	121	0,12722408400077256	None	8,38500560504534	3,0229251316159442	15:21:34.911267	17/01/2023	random	1,4212943339989579	1	1	3	
john-doe	01	male	18	1	1	121	0,12722408400077256	None	8,38500560504534	3,0229251316159442	15:21:35.383812	17/01/2023	random	1,893938999997772	1	1	2	
john-doe	01	male	18	1	1	121	0,12722408400077256	None	8,38500560504534	3,0229251316159442	15:21:35.742601	17/01/2023	random	2,2527310000004945	1	1	4	
john-doe	01	male	18	1	1	121	0,12722408400077256	None	8,38500560504534	3,0229251316159442	15:21:36.171453	17/01/2023	random	2,681606209000165	0	1	1	
john-doe	01	male	18	1	1	122	0,12672699999893666	None	8,38500560504534	3,0229251316159442	15:21:37.273235	17/01/2023	random	0,9709175419993699	1	2	4	
john-doe	01	male	18	1	1	122	0,12672699999893666	None	8,38500560504534	3,0229251316159442	15:21:37.701314	17/01/2023	random	1,3991326670002309	1	2	3	
john-doe	01	male	18	1	1	122	0,12672699999893666	None	8,38500560504534	3,0229251316159442	15:21:38.061744	17/01/2023	random	1,7595887499992386	0	2	2	
john-doe	01	male	18	1	1	123	0,12655179199646227	None	8,38500560504534	3,0229251316159442	15:21:38.849500	17/01/2023	random	0,6568125420017168	1	4	2	
john-doe	01	male	18	1	1	123	0,12655179199646227	None	8,38500560504534	3,0229251316159442	15:21:39.321058	17/01/2023	random	1,1285674999999173	1	4	3	
john-doe	01	male	18	1	1	123	0,12655179199646227	None	8,38500560504534	3,0229251316159442	15:21:39.636839	17/01/2023	random	1,4443537920014933	0	4	4	
john-doe	01	male	18	1	1	124	0,1267110410008172	None	8,38500560504534	3,0229251316159442	15:21:40.155888	17/01/2023	random	0,3881374579978001	0	4	4	
john-doe	01	male	18	1	1	125	0,12773433400070644	None	8,38500560504534	3,0229251316159442	15:21:40.605791	17/01/2023	random	0,3177875830006087	0	4	4	
john-doe	01	male	18	1	1	126	0,12913687499894877	None	8,38500560504534	3,0229251316159442	15:21:42.427091	17/01/2023	random	1,6880814579999424	0	2	2	
john-doe	01	male	18	1	1	127	0,1265753340012452	None	8,38500560504534	3,0229251316159442	15:21:43.304215	17/01/2023	random	0,7457807079990744	0	1	1	
john-doe	01	male	18	1	1	128	0,12607758399826707	None	8,38500560504534	3,0229251316159442	15:21:44.451235	17/01/2023	random	1,0166230840004573	0	3	3	
john-doe	01	male	18	1	1	129	0,1264282079973782	None	8,38500560504534	3,0229251316159442	15:21:45.193850	17/01/2023	random	0,6092862080004124	1	1	2	
john-doe	01	male	18	1	1	129	0,1264282079973782	None	8,38500560504534	3,0229251316159442	15:21:45.576730	17/01/2023	random	0,9923420000013721	0	1	1	
john-doe	01	male	18	1	1	130	0,12636441699942225	None	8,38500560504534	3,0229251316159442	15:21:46.386858	17/01/2023	random	0,6800787920001312	1	3	4	
john-doe	01	male	18	1	1	130	0,12636441699942225	None	8,38500560504534	3,0229251316159442	15:21:46.949734	17/01/2023	random	1,2429309580002155	0	3	3	
john-doe	01	male	18	1	1	131	0,12664200000290293	None	8,38500560504534	3,0229251316159442	15:21:47.760287	17/01/2023	random	0,6789105829993787	0	2	2	
john-doe	01	male	18	1	1	132	0,1268218330005766	None	8,38500560504534	3,0229251316159442	15:21:48.366643	17/01/2023	random	0,4753825420011708	0	2	2	
john-doe	01	male	18	1	1	133	0,12622950000150013	None	8,38500560504534	3,0229251316159442	15:21:49.064577	17/01/2023	random	0,5677471660019364	0	1	1	
john-doe	01	male	18	1	1	134	0,12712050000118325	None	8,38500560504534	3,0229251316159442	15:21:49.942085	17/01/2023	random	0,7460661670011177	0	1	1	
john-doe	01	male	18	1	1	135	0,12692437499936204	None	8,38500560504534	3,0229251316159442	15:21:50.752593	17/01/2023	random	0,6789024999998219	0	2	2	userquit